back_rows,counter,block_notice,session_typy_block,NO,block,session_typy,numbers_v,corr_respond_v,numbers_a,corr_respond_a,trials_all.thisRepN,trials_all.thisTrialN,trials_all.thisN,trials_all.thisIndex,trials_rows.thisRepN,trials_rows.thisTrialN,trials_rows.thisN,trials_rows.thisIndex,trials.thisRepN,trials.thisTrialN,trials.thisN,trials.thisIndex,nasa_loop.thisRepN,nasa_loop.thisTrialN,nasa_loop.thisN,nasa_loop.thisIndex,thisRow.t,notes,instructions.started,instructionsTxt.started,fix_stimulus_2.started,fix_stimulus_2.stopped,key_resp.started,instructions.stopped,key_resp.keys,key_resp.rt,key_resp.duration,n_choose.started,dual_box.started,dual_box.stopped,model_choosing.started,sa_img.started,dual_img.started,sv_img.started,sa_text.started,dual_text.started,sv_text.started,sa_t.started,sv_t.started,dual_t.started,n_choose.stopped,model_choosing.x,model_choosing.y,model_choosing.leftButton,model_choosing.midButton,model_choosing.rightButton,model_choosing.clicked_name,block_notice.started,notice_textbox.started,text_2.started,text_2.stopped,key_resp_3.started,block_notice.stopped,key_resp_3.keys,key_resp_3.rt,key_resp_3.duration,fixation.started,fix.started,frame_fix.started,key_not_left_2.started,key_not_right_2.started,fix.stopped,frame_fix.stopped,key_not_left_2.stopped,key_not_right_2.stopped,fixation.stopped,stimulus_setting.started,stimulus_setting.stopped,trial.started,trial_counter_2.started,trial_counter_2.stopped,fix_stimulus.started,key_resp_v.started,stimulus_block.started,frame_trial.started,key_not_left.started,key_not_right.started,stimulus_block.stopped,trial.stopped,key_resp_v.keys,verval_resp_a.clip,feedback.started,trial_counter_f.started,trial_counter_f.stopped,fix_stimulus_feedback.started,fix_stimulus_feedback.stopped,frame_trial_2.started,frame_trial_2.stopped,feedback.stopped,RT_visual,trial-state_adudio,correct_visual,correct_visual_target,correct_visual_none-target,trial-state_visual,Block_name,Session,key_resp_v.rt,key_resp_v.duration,oral_resp_a.rt,oral_resp_a.keys,length_original_audio,end_block.started,key_resp_2.started,end_block_message.started,end_block_message.stopped,end_block.stopped,key_resp_2.keys,NASA.started,form.started,mouse_4.started,nasa_title.started,NASA.stopped,form.index,form.itemText,form.type,form.font,form.markerColor,form.response,form.rt,mouse_4.x,mouse_4.y,mouse_4.leftButton,mouse_4.midButton,mouse_4.rightButton,mouse_4.time,mouse_4.clicked_name,scale_sub_box.started,stimulus_audio.started,verval_resp_a.started,key_resp_2.rt,key_resp_2.duration,end.started,text.started,key_resp_4.started,end.stopped,key_resp_4.keys,Group,ID,First_Language,date,expName,psychopyVersion,frameRate,expStart,Unnamed: 153
,,,,,,,,,,,,,,,,,,,,,,,,,,,,,0.0096009999979287,0.0266485000029206,0.0266485000029206,0.0266485000029206,0.0266485000029206,39.550889000005554,l,39.51493330000085,,,,,,,,,,,,,,,,,,,,,,,,,,,,,,,,,,,,,,,,,,,,,,,,,,,,,,,,,,,,,,,,,,,,,,,,,,,,,,,,,,,,,,,,,,,,,,,,,,,,,,,,,,,,,,,,N,6,普通话,2025-01-02_15h32.07.781,n_back_2,2023.2.1,59.72192277931209,2025-01-02 15h32.28.701998 +0800,
168:210,1/2,2-,single,169.0,1/2,single,4.0,control,7.0,control,0.0,0.0,0.0,0.0,0.0,0.0,0.0,0.0,0.0,0.0,0.0,0.0,,,,,75.93627929998911,,,,,,,,,,,39.55152919999091,40.40006349998293,40.40006349998293,0.8141961999936029,40.40006349998293,40.40006349998293,40.40006349998293,40.40006349998293,40.40006349998293,40.40006349998293,40.40006349998293,40.40006349998293,40.40006349998293,72.63305219999165,-0.5916666666666667,-0.2453703703703703,1.0,0.0,0.0,sv_t,72.64047529999516,72.66520389998914,72.66520389998914,72.66520389998914,72.66520389998914,74.7679586999875,l,2.098349399981089,,74.76834019998205,74.83524220000254,74.83524220000254,74.83524220000254,74.83524220000254,75.93627929998911,75.93627929998911,75.93627929998911,75.93627929998911,75.82171249997918,75.86008579999907,75.860417399992,75.86043209998752,75.93627929998911,75.93627929998911,75.93627929998911,75.93627929998911,75.93627929998911,75.93627929998911,75.93627929998911,75.93627929998911,76.4380378999922,78.35724899999332,,C:\Users\lujun\Desktop\01_n_back\data/N_6_n_back_2_2025-01-02_15h32.07.781_verval_resp_a_recorded\recording_verval_resp_a_2025-01-02_15h33.47.050.wav,78.3577995999949,78.52222260000417,78.52222260000417,78.52222260000417,78.52222260000417,78.52222260000417,78.52222260000417,78.41606069999398,[],Audio OUT!,0.0,0.0,0.0,control,1/2,sv_t,0.001,,0.001,UNKNOWN,0.0,,,,,,,,,,,,,,,,,,,,,,,,,,,,,,,,,,,,N,6,普通话,2025-01-02_15h32.07.781,n_back_2,2023.2.1,59.72192277931209,2025-01-02 15h32.28.701998 +0800,
168:210,1/2,2-,single,170.0,1/2,single,5.0,control,1.0,control,0.0,0.0,0.0,0.0,0.0,0.0,0.0,0.0,0.0,1.0,1.0,1.0,,,,,78.52222260000417,,,,,,,,,,,,,,,,,,,,,,,,,,,,,,,,,,,,,,,,,,,,,,,,,,78.41637150000315,78.41653129999759,78.41654049998033,78.52222260000417,78.52222260000417,78.52222260000417,78.52222260000417,78.52222260000417,78.52222260000417,78.52222260000417,78.52222260000417,79.02424189998419,80.91029319999507,,C:\Users\lujun\Desktop\01_n_back\data/N_6_n_back_2_2025-01-02_15h32.07.781_verval_resp_a_recorded\recording_verval_resp_a_2025-01-02_15h33.49.603.wav,80.91071450000163,81.1239360999898,81.1239360999898,81.1239360999898,81.1239360999898,81.1239360999898,81.1239360999898,81.0196323999844,[],Audio OUT!,0.0,0.0,0.0,control,1/2,sv_t,0.001,,0.001,UNKNOWN,0.0,,,,,,,,,,,,,,,,,,,,,,,,,,,,,,,,,,,,N,6,普通话,2025-01-02_15h32.07.781,n_back_2,2023.2.1,59.72192277931209,2025-01-02 15h32.28.701998 +0800,
168:210,1/2,2-,single,171.0,1/2,single,4.0,l,7.0,l,0.0,0.0,0.0,0.0,0.0,0.0,0.0,0.0,0.0,2.0,2.0,2.0,,,,,81.1239360999898,,,,,,,,,,,,,,,,,,,,,,,,,,,,,,,,,,,,,,,,,,,,,,,,,,81.01987489999738,81.02001310000196,81.02002199998242,81.1239360999898,81.1239360999898,81.1239360999898,81.1239360999898,81.1239360999898,81.1239360999898,81.1239360999898,81.1239360999898,81.62442249999731,83.50989439999103,l,C:\Users\lujun\Desktop\01_n_back\data/N_6_n_back_2_2025-01-02_15h32.07.781_verval_resp_a_recorded\recording_verval_resp_a_2025-01-02_15h33.52.202.wav,83.51048969998374,83.72675729999901,83.72675729999901,83.72675729999901,83.72675729999901,83.72675729999901,83.72675729999901,83.62254949999624,601.0,Audio OUT!,1.0,1.0,0.0,target,1/2,sv_t,0.6005493000266142,,0.001,UNKNOWN,0.0,,,,,,,,,,,,,,,,,,,,,,,,,,,,,,,,,,,,N,6,普通话,2025-01-02_15h32.07.781,n_back_2,2023.2.1,59.72192277931209,2025-01-02 15h32.28.701998 +0800,
168:210,1/2,2-,single,172.0,1/2,single,7.0,a,8.0,a,0.0,0.0,0.0,0.0,0.0,0.0,0.0,0.0,0.0,3.0,3.0,3.0,,,,,83.72675729999901,,,,,,,,,,,,,,,,,,,,,,,,,,,,,,,,,,,,,,,,,,,,,,,,,,83.62278030000743,83.62292199998046,83.62293099999079,83.72675729999901,83.72675729999901,83.72675729999901,83.72675729999901,83.72675729999901,83.72675729999901,83.72675729999901,83.72675729999901,84.22669999999925,86.11264129998744,a,C:\Users\lujun\Desktop\01_n_back\data/N_6_n_back_2_2025-01-02_15h32.07.781_verval_resp_a_recorded\recording_verval_resp_a_2025-01-02_15h33.54.805.wav,86.11321149999276,86.3293105000048,86.3293105000048,86.3293105000048,86.3293105000048,86.3293105000048,86.3293105000048,86.21351089997916,626.0,Audio OUT!,1.0,0.0,1.0,non-target,1/2,sv_t,0.6260588000004645,,0.001,UNKNOWN,0.0,,,,,,,,,,,,,,,,,,,,,,,,,,,,,,,,,,,,N,6,普通话,2025-01-02_15h32.07.781,n_back_2,2023.2.1,59.72192277931209,2025-01-02 15h32.28.701998 +0800,
168:210,1/2,2-,single,173.0,1/2,single,8.0,a,4.0,a,0.0,0.0,0.0,0.0,0.0,0.0,0.0,0.0,0.0,4.0,4.0,4.0,,,,,86.3293105000048,,,,,,,,,,,,,,,,,,,,,,,,,,,,,,,,,,,,,,,,,,,,,,,,,,86.21374289999949,86.21388649998698,86.21389529999578,86.3293105000048,86.3293105000048,86.3293105000048,86.3293105000048,86.3293105000048,86.3293105000048,86.3293105000048,86.3293105000048,86.82937269998365,88.69857459998457,a,C:\Users\lujun\Desktop\01_n_back\data/N_6_n_back_2_2025-01-02_15h32.07.781_verval_resp_a_recorded\recording_verval_resp_a_2025-01-02_15h33.57.391.wav,88.69907869998133,88.9147796999896,88.9147796999896,88.9147796999896,88.9147796999896,88.9147796999896,88.9147796999896,88.80431249999674,889.0,Audio OUT!,1.0,0.0,1.0,non-target,1/2,sv_t,0.8893935999949463,,0.001,UNKNOWN,0.0,,,,,,,,,,,,,,,,,,,,,,,,,,,,,,,,,,,,N,6,普通话,2025-01-02_15h32.07.781,n_back_2,2023.2.1,59.72192277931209,2025-01-02 15h32.28.701998 +0800,
168:210,1/2,2-,single,174.0,1/2,single,7.0,l,8.0,l,0.0,0.0,0.0,0.0,0.0,0.0,0.0,0.0,0.0,5.0,5.0,5.0,,,,,88.9147796999896,,,,,,,,,,,,,,,,,,,,,,,,,,,,,,,,,,,,,,,,,,,,,,,,,,88.80471500000567,88.80495499999961,88.8049733999942,88.9147796999896,88.9147796999896,88.9147796999896,88.9147796999896,88.9147796999896,88.9147796999896,88.9147796999896,88.9147796999896,89.41528319998179,91.30102869999246,l,C:\Users\lujun\Desktop\01_n_back\data/N_6_n_back_2_2025-01-02_15h32.07.781_verval_resp_a_recorded\recording_verval_resp_a_2025-01-02_15h33.59.993.wav,91.30153219998463,91.51826680000522,91.51826680000522,91.51826680000522,91.51826680000522,91.51826680000522,91.51826680000522,91.40035169999464,746.0,Audio OUT!,1.0,1.0,0.0,target,1/2,sv_t,0.7459375000034925,,0.001,UNKNOWN,0.0,,,,,,,,,,,,,,,,,,,,,,,,,,,,,,,,,,,,N,6,普通话,2025-01-02_15h32.07.781,n_back_2,2023.2.1,59.72192277931209,2025-01-02 15h32.28.701998 +0800,
168:210,1/2,2-,single,175.0,1/2,single,2.0,a,4.0,l,0.0,0.0,0.0,0.0,0.0,0.0,0.0,0.0,0.0,6.0,6.0,6.0,,,,,91.51826680000522,,,,,,,,,,,,,,,,,,,,,,,,,,,,,,,,,,,,,,,,,,,,,,,,,,91.40062070000567,91.40076089999638,91.40077059998292,91.51826680000522,91.51826680000522,91.51826680000522,91.51826680000522,91.51826680000522,91.51826680000522,91.51826680000522,91.51826680000522,92.0181830000074,93.887026899989,a,C:\Users\lujun\Desktop\01_n_back\data/N_6_n_back_2_2025-01-02_15h32.07.781_verval_resp_a_recorded\recording_verval_resp_a_2025-01-02_15h34.02.579.wav,93.88752729998669,94.08711639998364,94.08711639998364,94.08711639998364,94.08711639998364,94.08711639998364,94.08711639998364,93.9828806000005,901.0,Audio OUT!,1.0,0.0,1.0,non-target,1/2,sv_t,0.901168599986704,,0.001,UNKNOWN,0.0,,,,,,,,,,,,,,,,,,,,,,,,,,,,,,,,,,,,N,6,普通话,2025-01-02_15h32.07.781,n_back_2,2023.2.1,59.72192277931209,2025-01-02 15h32.28.701998 +0800,
168:210,1/2,2-,single,176.0,1/2,single,7.0,l,7.0,a,0.0,0.0,0.0,0.0,0.0,0.0,0.0,0.0,0.0,7.0,7.0,7.0,,,,,94.08711639998364,,,,,,,,,,,,,,,,,,,,,,,,,,,,,,,,,,,,,,,,,,,,,,,,,,93.9831797000079,93.98332699999446,93.98333610000554,94.08711639998364,94.08711639998364,94.08711639998364,94.08711639998364,94.08711639998364,94.08711639998364,94.08711639998364,94.08711639998364,94.58995429999776,96.47575429998687,l,C:\Users\lujun\Desktop\01_n_back\data/N_6_n_back_2_2025-01-02_15h32.07.781_verval_resp_a_recorded\recording_verval_resp_a_2025-01-02_15h34.05.168.wav,96.4763241999899,96.67319999999016,96.67319999999016,96.67319999999016,96.67319999999016,96.67319999999016,96.67319999999016,96.56862429998,895.0,Audio OUT!,1.0,1.0,0.0,target,1/2,sv_t,0.8950863000063691,,0.001,UNKNOWN,0.0,,,,,,,,,,,,,,,,,,,,,,,,,,,,,,,,,,,,N,6,普通话,2025-01-02_15h32.07.781,n_back_2,2023.2.1,59.72192277931209,2025-01-02 15h32.28.701998 +0800,
168:210,1/2,2-,single,177.0,1/2,single,7.0,a,4.0,l,0.0,0.0,0.0,0.0,0.0,0.0,0.0,0.0,0.0,8.0,8.0,8.0,,,,,96.67319999999016,,,,,,,,,,,,,,,,,,,,,,,,,,,,,,,,,,,,,,,,,,,,,,,,,,96.56888479998452,96.56902490000355,96.5690338999848,96.67319999999016,96.67319999999016,96.67319999999016,96.67319999999016,96.67319999999016,96.67319999999016,96.67319999999016,96.67319999999016,97.17584059998626,99.06150539999362,l,C:\Users\lujun\Desktop\01_n_back\data/N_6_n_back_2_2025-01-02_15h32.07.781_verval_resp_a_recorded\recording_verval_resp_a_2025-01-02_15h34.07.754.wav,99.06200539998828,99.27520549998736,99.27520549998736,99.27520549998736,99.27520549998736,99.27520549998736,99.27520549998736,99.15680490000524,810.0,Audio OUT!,0.0,0.0,0.0,non-target,1/2,sv_t,0.8101090999844018,,0.001,UNKNOWN,0.0,,,,,,,,,,,,,,,,,,,,,,,,,,,,,,,,,,,,N,6,普通话,2025-01-02_15h32.07.781,n_back_2,2023.2.1,59.72192277931209,2025-01-02 15h32.28.701998 +0800,
168:210,1/2,2-,single,178.0,1/2,single,2.0,a,2.0,a,0.0,0.0,0.0,0.0,0.0,0.0,0.0,0.0,0.0,9.0,9.0,9.0,,,,,99.27520549998736,,,,,,,,,,,,,,,,,,,,,,,,,,,,,,,,,,,,,,,,,,,,,,,,,,99.1570628999907,99.1571927999903,99.15720169999986,99.27520549998736,99.27520549998736,99.27520549998736,99.27520549998736,99.27520549998736,99.27520549998736,99.27520549998736,99.27520549998736,99.77554060000692,101.64464479999153,a,C:\Users\lujun\Desktop\01_n_back\data/N_6_n_back_2_2025-01-02_15h32.07.781_verval_resp_a_recorded\recording_verval_resp_a_2025-01-02_15h34.10.337.wav,101.64517559998784,101.86112859999412,101.86112859999412,101.86112859999412,101.86112859999412,101.86112859999412,101.86112859999412,101.74387760000536,534.0,Audio OUT!,1.0,0.0,1.0,non-target,1/2,sv_t,0.5343060999875888,,0.001,UNKNOWN,0.0,,,,,,,,,,,,,,,,,,,,,,,,,,,,,,,,,,,,N,6,普通话,2025-01-02_15h32.07.781,n_back_2,2023.2.1,59.72192277931209,2025-01-02 15h32.28.701998 +0800,
168:210,1/2,2-,single,179.0,1/2,single,6.0,a,1.0,a,0.0,0.0,0.0,0.0,0.0,0.0,0.0,0.0,0.0,10.0,10.0,10.0,,,,,101.86112859999412,,,,,,,,,,,,,,,,,,,,,,,,,,,,,,,,,,,,,,,,,,,,,,,,,,101.74413539998932,101.7442677000072,101.7442766999884,101.86112859999412,101.86112859999412,101.86112859999412,101.86112859999412,101.86112859999412,101.86112859999412,101.86112859999412,101.86112859999412,102.3614430000016,104.2305456000031,a,C:\Users\lujun\Desktop\01_n_back\data/N_6_n_back_2_2025-01-02_15h32.07.781_verval_resp_a_recorded\recording_verval_resp_a_2025-01-02_15h34.12.923.wav,104.23108669999056,104.43165270000463,104.43165270000463,104.43165270000463,104.43165270000463,104.43165270000463,104.43165270000463,104.32630270000664,929.0,Audio OUT!,1.0,0.0,1.0,non-target,1/2,sv_t,0.9290893000143114,,0.001,UNKNOWN,0.0,,,,,,,,,,,,,,,,,,,,,,,,,,,,,,,,,,,,N,6,普通话,2025-01-02_15h32.07.781,n_back_2,2023.2.1,59.72192277931209,2025-01-02 15h32.28.701998 +0800,
168:210,1/2,2-,single,180.0,1/2,single,2.0,l,3.0,a,0.0,0.0,0.0,0.0,0.0,0.0,0.0,0.0,0.0,11.0,11.0,11.0,,,,,104.43165270000463,,,,,,,,,,,,,,,,,,,,,,,,,,,,,,,,,,,,,,,,,,,,,,,,,,104.32655959998374,104.32670279999728,104.32671229998232,104.43165270000463,104.43165270000463,104.43165270000463,104.43165270000463,104.43165270000463,104.43165270000463,104.43165270000463,104.43165270000463,104.93295919999946,106.81907050000154,l,C:\Users\lujun\Desktop\01_n_back\data/N_6_n_back_2_2025-01-02_15h32.07.781_verval_resp_a_recorded\recording_verval_resp_a_2025-01-02_15h34.15.511.wav,106.81956340000032,107.01763449999272,107.01763449999272,107.01763449999272,107.01763449999272,107.01763449999272,107.01763449999272,106.91128959998603,724.0,Audio OUT!,1.0,1.0,0.0,target,1/2,sv_t,0.7237129999848548,,0.001,UNKNOWN,0.0,,,,,,,,,,,,,,,,,,,,,,,,,,,,,,,,,,,,N,6,普通话,2025-01-02_15h32.07.781,n_back_2,2023.2.1,59.72192277931209,2025-01-02 15h32.28.701998 +0800,
168:210,1/2,2-,single,181.0,1/2,single,1.0,a,1.0,l,0.0,0.0,0.0,0.0,0.0,0.0,0.0,0.0,0.0,12.0,12.0,12.0,,,,,107.01763449999272,,,,,,,,,,,,,,,,,,,,,,,,,,,,,,,,,,,,,,,,,,,,,,,,,,106.91154939998523,106.91168839999592,106.91169730000549,107.01763449999272,107.01763449999272,107.01763449999272,107.01763449999272,107.01763449999272,107.01763449999272,107.01763449999272,107.01763449999272,107.51888109999707,109.40485530000296,a,C:\Users\lujun\Desktop\01_n_back\data/N_6_n_back_2_2025-01-02_15h32.07.781_verval_resp_a_recorded\recording_verval_resp_a_2025-01-02_15h34.18.097.wav,109.4053600000043,109.61876660000416,109.61876660000416,109.61876660000416,109.61876660000416,109.61876660000416,109.61876660000416,109.50011289998656,1131.0,Audio OUT!,1.0,0.0,1.0,non-target,1/2,sv_t,1.1313745999941602,,0.001,UNKNOWN,0.0,,,,,,,,,,,,,,,,,,,,,,,,,,,,,,,,,,,,N,6,普通话,2025-01-02_15h32.07.781,n_back_2,2023.2.1,59.72192277931209,2025-01-02 15h32.28.701998 +0800,
168:210,1/2,2-,single,182.0,1/2,single,5.0,a,3.0,l,0.0,0.0,0.0,0.0,0.0,0.0,0.0,0.0,0.0,13.0,13.0,13.0,,,,,109.61876660000416,,,,,,,,,,,,,,,,,,,,,,,,,,,,,,,,,,,,,,,,,,,,,,,,,,109.5003722999827,109.50051829998849,109.50052750000032,109.61876660000416,109.61876660000416,109.61876660000416,109.61876660000416,109.61876660000416,109.61876660000416,109.61876660000416,109.61876660000416,110.11920459999236,111.9909492000006,a,C:\Users\lujun\Desktop\01_n_back\data/N_6_n_back_2_2025-01-02_15h32.07.781_verval_resp_a_recorded\recording_verval_resp_a_2025-01-02_15h34.20.683.wav,111.99145979998866,112.18839189998108,112.18839189998108,112.18839189998108,112.18839189998108,112.18839189998108,112.18839189998108,112.08301519998348,1626.0,Audio OUT!,1.0,0.0,1.0,non-target,1/2,sv_t,1.6255299000185914,,0.001,UNKNOWN,0.0,,,,,,,,,,,,,,,,,,,,,,,,,,,,,,,,,,,,N,6,普通话,2025-01-02_15h32.07.781,n_back_2,2023.2.1,59.72192277931209,2025-01-02 15h32.28.701998 +0800,
168:210,1/2,2-,single,183.0,1/2,single,4.0,a,2.0,a,0.0,0.0,0.0,0.0,0.0,0.0,0.0,0.0,0.0,14.0,14.0,14.0,,,,,112.18839189998108,,,,,,,,,,,,,,,,,,,,,,,,,,,,,,,,,,,,,,,,,,,,,,,,,,112.08327529998496,112.08341479999945,112.08342569999512,112.18839189998108,112.18839189998108,112.18839189998108,112.18839189998108,112.18839189998108,112.18839189998108,112.18839189998108,112.18839189998108,112.69073519998346,114.5767610000039,a,C:\Users\lujun\Desktop\01_n_back\data/N_6_n_back_2_2025-01-02_15h32.07.781_verval_resp_a_recorded\recording_verval_resp_a_2025-01-02_15h34.23.269.wav,114.57726649998222,114.7906999999832,114.7906999999832,114.7906999999832,114.7906999999832,114.7906999999832,114.7906999999832,114.67184279998764,1643.0,Audio OUT!,1.0,0.0,1.0,non-target,1/2,sv_t,1.6425711000047158,,0.001,UNKNOWN,0.0,,,,,,,,,,,,,,,,,,,,,,,,,,,,,,,,,,,,N,6,普通话,2025-01-02_15h32.07.781,n_back_2,2023.2.1,59.72192277931209,2025-01-02 15h32.28.701998 +0800,
168:210,1/2,2-,single,184.0,1/2,single,5.0,l,3.0,l,0.0,0.0,0.0,0.0,0.0,0.0,0.0,0.0,0.0,15.0,15.0,15.0,,,,,114.7906999999832,,,,,,,,,,,,,,,,,,,,,,,,,,,,,,,,,,,,,,,,,,,,,,,,,,114.67213130000164,114.67228589998558,114.6722969999828,114.7906999999832,114.7906999999832,114.7906999999832,114.7906999999832,114.7906999999832,114.7906999999832,114.7906999999832,114.7906999999832,115.29102069998044,117.16029279999202,l,C:\Users\lujun\Desktop\01_n_back\data/N_6_n_back_2_2025-01-02_15h32.07.781_verval_resp_a_recorded\recording_verval_resp_a_2025-01-02_15h34.25.853.wav,117.16083269999945,117.3765362999984,117.3765362999984,117.3765362999984,117.3765362999984,117.3765362999984,117.3765362999984,117.25270739998086,898.0,Audio OUT!,1.0,1.0,0.0,target,1/2,sv_t,0.8982197000004817,,0.001,UNKNOWN,0.0,,,,,,,,,,,,,,,,,,,,,,,,,,,,,,,,,,,,N,6,普通话,2025-01-02_15h32.07.781,n_back_2,2023.2.1,59.72192277931209,2025-01-02 15h32.28.701998 +0800,
168:210,1/2,2-,single,185.0,1/2,single,4.0,l,6.0,a,0.0,0.0,0.0,0.0,0.0,0.0,0.0,0.0,0.0,16.0,16.0,16.0,,,,,117.3765362999984,,,,,,,,,,,,,,,,,,,,,,,,,,,,,,,,,,,,,,,,,,,,,,,,,,117.25299639999866,117.25315390000468,117.25316480000038,117.3765362999984,117.3765362999984,117.3765362999984,117.3765362999984,117.3765362999984,117.3765362999984,117.3765362999984,117.3765362999984,117.87694839999313,119.74600569999892,l,C:\Users\lujun\Desktop\01_n_back\data/N_6_n_back_2_2025-01-02_15h32.07.781_verval_resp_a_recorded\recording_verval_resp_a_2025-01-02_15h34.28.438.wav,119.7465028000006,119.94817950000288,119.94817950000288,119.94817950000288,119.94817950000288,119.94817950000288,119.94817950000288,119.8418260999897,1591.0,Audio OUT!,1.0,1.0,0.0,target,1/2,sv_t,1.591031899995869,,0.001,UNKNOWN,0.0,,,,,,,,,,,,,,,,,,,,,,,,,,,,,,,,,,,,N,6,普通话,2025-01-02_15h32.07.781,n_back_2,2023.2.1,59.72192277931209,2025-01-02 15h32.28.701998 +0800,
168:210,1/2,2-,single,186.0,1/2,single,3.0,a,1.0,a,0.0,0.0,0.0,0.0,0.0,0.0,0.0,0.0,0.0,17.0,17.0,17.0,,,,,119.94817950000288,,,,,,,,,,,,,,,,,,,,,,,,,,,,,,,,,,,,,,,,,,,,,,,,,,119.8420863999927,119.84223320000456,119.84224189998348,119.94817950000288,119.94817950000288,119.94817950000288,119.94817950000288,119.94817950000288,119.94817950000288,119.94817950000288,119.94817950000288,120.44859369998449,122.33470149998902,a,C:\Users\lujun\Desktop\01_n_back\data/N_6_n_back_2_2025-01-02_15h32.07.781_verval_resp_a_recorded\recording_verval_resp_a_2025-01-02_15h34.31.027.wav,122.33547659998294,122.5330175999843,122.5330175999843,122.5330175999843,122.5330175999843,122.5330175999843,122.5330175999843,122.42716689998632,1173.0,Audio OUT!,1.0,0.0,1.0,non-target,1/2,sv_t,1.1726807999948503,,0.001,UNKNOWN,0.0,,,,,,,,,,,,,,,,,,,,,,,,,,,,,,,,,,,,N,6,普通话,2025-01-02_15h32.07.781,n_back_2,2023.2.1,59.72192277931209,2025-01-02 15h32.28.701998 +0800,
168:210,1/2,2-,single,187.0,1/2,single,7.0,a,6.0,l,0.0,0.0,0.0,0.0,0.0,0.0,0.0,0.0,0.0,18.0,18.0,18.0,,,,,122.5330175999843,,,,,,,,,,,,,,,,,,,,,,,,,,,,,,,,,,,,,,,,,,,,,,,,,,122.42745379998814,122.42761230000178,122.42762189998756,122.5330175999843,122.5330175999843,122.5330175999843,122.5330175999843,122.5330175999843,122.5330175999843,122.5330175999843,122.5330175999843,123.03505659999792,124.92084679999972,a,C:\Users\lujun\Desktop\01_n_back\data/N_6_n_back_2_2025-01-02_15h32.07.781_verval_resp_a_recorded\recording_verval_resp_a_2025-01-02_15h34.33.613.wav,124.92156620000604,125.13459339999828,125.13459339999828,125.13459339999828,125.13459339999828,125.13459339999828,125.13459339999828,125.01676070000394,960.0,Audio OUT!,1.0,0.0,1.0,non-target,1/2,sv_t,0.95959959999891,,0.001,UNKNOWN,0.0,,,,,,,,,,,,,,,,,,,,,,,,,,,,,,,,,,,,N,6,普通话,2025-01-02_15h32.07.781,n_back_2,2023.2.1,59.72192277931209,2025-01-02 15h32.28.701998 +0800,
168:210,1/2,2-,single,188.0,1/2,single,3.0,l,1.0,l,0.0,0.0,0.0,0.0,0.0,0.0,0.0,0.0,0.0,19.0,19.0,19.0,,,,,125.13459339999828,,,,,,,,,,,,,,,,,,,,,,,,,,,,,,,,,,,,,,,,,,,,,,,,,,125.0170167000033,125.01718789999724,125.01719729998148,125.13459339999828,125.13459339999828,125.13459339999828,125.13459339999828,125.13459339999828,125.13459339999828,125.13459339999828,125.13459339999828,125.6347570999933,127.5039523000014,l,C:\Users\lujun\Desktop\01_n_back\data/N_6_n_back_2_2025-01-02_15h32.07.781_verval_resp_a_recorded\recording_verval_resp_a_2025-01-02_15h34.36.197.wav,127.50445710000348,127.70348239998566,127.70348239998566,127.70348239998566,127.70348239998566,127.70348239998566,127.70348239998566,127.5956368999905,781.0,Audio OUT!,1.0,1.0,0.0,target,1/2,sv_t,0.7808356000168715,,0.001,UNKNOWN,0.0,,,,,,,,,,,,,,,,,,,,,,,,,,,,,,,,,,,,N,6,普通话,2025-01-02_15h32.07.781,n_back_2,2023.2.1,59.72192277931209,2025-01-02 15h32.28.701998 +0800,
168:210,1/2,2-,single,189.0,1/2,single,7.0,l,7.0,a,0.0,0.0,0.0,0.0,0.0,0.0,0.0,0.0,0.0,20.0,20.0,20.0,,,,,127.70348239998566,,,,,,,,,,,,,,,,,,,,,,,,,,,,,,,,,,,,,,,,,,,,,,,,,,127.59592669998528,127.59608359998674,127.5960942999809,127.70348239998566,127.70348239998566,127.70348239998566,127.70348239998566,127.70348239998566,127.70348239998566,127.70348239998566,127.70348239998566,128.20385089999763,130.08976519998396,l,C:\Users\lujun\Desktop\01_n_back\data/N_6_n_back_2_2025-01-02_15h32.07.781_verval_resp_a_recorded\recording_verval_resp_a_2025-01-02_15h34.38.782.wav,130.09032689998276,130.29160949998186,130.29160949998186,130.29160949998186,130.29160949998186,130.29160949998186,130.29160949998186,130.18566809999174,883.0,Audio OUT!,1.0,1.0,0.0,target,1/2,sv_t,0.8831043999816757,,0.001,UNKNOWN,0.0,,,,,,,,,,,,,,,,,,,,,,,,,,,,,,,,,,,,N,6,普通话,2025-01-02_15h32.07.781,n_back_2,2023.2.1,59.72192277931209,2025-01-02 15h32.28.701998 +0800,
168:210,1/2,2-,single,190.0,1/2,single,2.0,a,1.0,l,0.0,0.0,0.0,0.0,0.0,0.0,0.0,0.0,0.0,21.0,21.0,21.0,,,,,130.29160949998186,,,,,,,,,,,,,,,,,,,,,,,,,,,,,,,,,,,,,,,,,,,,,,,,,,130.18596010000329,130.1861188999901,130.18612919998122,130.29160949998186,130.29160949998186,130.29160949998186,130.29160949998186,130.29160949998186,130.29160949998186,130.29160949998186,130.29160949998186,130.79208099999232,132.67819459998282,a,C:\Users\lujun\Desktop\01_n_back\data/N_6_n_back_2_2025-01-02_15h32.07.781_verval_resp_a_recorded\recording_verval_resp_a_2025-01-02_15h34.41.370.wav,132.6787389999954,132.8761065999861,132.8761065999861,132.8761065999861,132.8761065999861,132.8761065999861,132.8761065999861,132.77013799999258,1441.0,Audio OUT!,1.0,0.0,1.0,non-target,1/2,sv_t,1.441382399993017,,0.001,UNKNOWN,0.0,,,,,,,,,,,,,,,,,,,,,,,,,,,,,,,,,,,,N,6,普通话,2025-01-02_15h32.07.781,n_back_2,2023.2.1,59.72192277931209,2025-01-02 15h32.28.701998 +0800,
168:210,1/2,2-,single,191.0,1/2,single,4.0,a,6.0,a,0.0,0.0,0.0,0.0,0.0,0.0,0.0,0.0,0.0,22.0,22.0,22.0,,,,,132.8761065999861,,,,,,,,,,,,,,,,,,,,,,,,,,,,,,,,,,,,,,,,,,,,,,,,,,132.7703945999965,132.77052699998603,132.77053619999788,132.8761065999861,132.8761065999861,132.8761065999861,132.8761065999861,132.8761065999861,132.8761065999861,132.8761065999861,132.8761065999861,133.37817989999894,135.26405519997934,a,C:\Users\lujun\Desktop\01_n_back\data/N_6_n_back_2_2025-01-02_15h32.07.781_verval_resp_a_recorded\recording_verval_resp_a_2025-01-02_15h34.43.956.wav,135.2645848999964,135.47851049999008,135.47851049999008,135.47851049999008,135.47851049999008,135.47851049999008,135.47851049999008,135.36004179998417,1065.0,Audio OUT!,1.0,0.0,1.0,non-target,1/2,sv_t,1.0651520999963395,,0.001,UNKNOWN,0.0,,,,,,,,,,,,,,,,,,,,,,,,,,,,,,,,,,,,N,6,普通话,2025-01-02_15h32.07.781,n_back_2,2023.2.1,59.72192277931209,2025-01-02 15h32.28.701998 +0800,
168:210,1/2,2-,single,192.0,1/2,single,2.0,l,5.0,a,0.0,0.0,0.0,0.0,0.0,0.0,0.0,0.0,0.0,23.0,23.0,23.0,,,,,135.47851049999008,,,,,,,,,,,,,,,,,,,,,,,,,,,,,,,,,,,,,,,,,,,,,,,,,,135.36029959999723,135.3604447999969,135.36045419998118,135.47851049999008,135.47851049999008,135.47851049999008,135.47851049999008,135.47851049999008,135.47851049999008,135.47851049999008,135.47851049999008,135.97850919998018,137.84741990000475,l,C:\Users\lujun\Desktop\01_n_back\data/N_6_n_back_2_2025-01-02_15h32.07.781_verval_resp_a_recorded\recording_verval_resp_a_2025-01-02_15h34.46.540.wav,137.84792460000608,138.04701429998386,138.04701429998386,138.04701429998386,138.04701429998386,138.04701429998386,138.04701429998386,137.93902140000137,887.0,Audio OUT!,1.0,1.0,0.0,target,1/2,sv_t,0.8873830000229646,,0.001,UNKNOWN,0.0,,,,,,,,,,,,,,,,,,,,,,,,,,,,,,,,,,,,N,6,普通话,2025-01-02_15h32.07.781,n_back_2,2023.2.1,59.72192277931209,2025-01-02 15h32.28.701998 +0800,
168:210,1/2,2-,single,193.0,1/2,single,4.0,l,5.0,a,0.0,0.0,0.0,0.0,0.0,0.0,0.0,0.0,0.0,24.0,24.0,24.0,,,,,138.04701429998386,,,,,,,,,,,,,,,,,,,,,,,,,,,,,,,,,,,,,,,,,,,,,,,,,,137.93927729999996,137.93941550000454,137.93942499998957,138.04701429998386,138.04701429998386,138.04701429998386,138.04701429998386,138.04701429998386,138.04701429998386,138.04701429998386,138.04701429998386,138.54751839998062,140.43371829998796,l,C:\Users\lujun\Desktop\01_n_back\data/N_6_n_back_2_2025-01-02_15h32.07.781_verval_resp_a_recorded\recording_verval_resp_a_2025-01-02_15h34.49.126.wav,140.43422860000285,140.6344492000062,140.6344492000062,140.6344492000062,140.6344492000062,140.6344492000062,140.6344492000062,140.5293340999924,942.0,Audio OUT!,1.0,1.0,0.0,target,1/2,sv_t,0.9417139000142924,,0.001,UNKNOWN,0.0,,,,,,,,,,,,,,,,,,,,,,,,,,,,,,,,,,,,N,6,普通话,2025-01-02_15h32.07.781,n_back_2,2023.2.1,59.72192277931209,2025-01-02 15h32.28.701998 +0800,
168:210,1/2,2-,single,194.0,1/2,single,1.0,a,8.0,a,0.0,0.0,0.0,0.0,0.0,0.0,0.0,0.0,0.0,25.0,25.0,25.0,,,,,140.6344492000062,,,,,,,,,,,,,,,,,,,,,,,,,,,,,,,,,,,,,,,,,,,,,,,,,,140.52962970000226,140.52982629998587,140.52983680000762,140.6344492000062,140.6344492000062,140.6344492000062,140.6344492000062,140.6344492000062,140.6344492000062,140.6344492000062,140.6344492000062,141.1359187999915,143.02143439999782,a,C:\Users\lujun\Desktop\01_n_back\data/N_6_n_back_2_2025-01-02_15h32.07.781_verval_resp_a_recorded\recording_verval_resp_a_2025-01-02_15h34.51.714.wav,143.02193620000617,143.21903700000257,143.21903700000257,143.21903700000257,143.21903700000257,143.21903700000257,143.21903700000257,143.11311330000171,825.0,Audio OUT!,1.0,0.0,1.0,non-target,1/2,sv_t,0.8252556000079494,,0.001,UNKNOWN,0.0,,,,,,,,,,,,,,,,,,,,,,,,,,,,,,,,,,,,N,6,普通话,2025-01-02_15h32.07.781,n_back_2,2023.2.1,59.72192277931209,2025-01-02 15h32.28.701998 +0800,
168:210,1/2,2-,single,195.0,1/2,single,2.0,a,8.0,a,0.0,0.0,0.0,0.0,0.0,0.0,0.0,0.0,0.0,26.0,26.0,26.0,,,,,143.21903700000257,,,,,,,,,,,,,,,,,,,,,,,,,,,,,,,,,,,,,,,,,,,,,,,,,,143.1133707999834,143.11353209998924,143.11355639999965,143.21903700000257,143.21903700000257,143.21903700000257,143.21903700000257,143.21903700000257,143.21903700000257,143.21903700000257,143.21903700000257,143.71965640000417,145.6057557000022,a,C:\Users\lujun\Desktop\01_n_back\data/N_6_n_back_2_2025-01-02_15h32.07.781_verval_resp_a_recorded\recording_verval_resp_a_2025-01-02_15h34.54.298.wav,145.606260200002,145.82152729999507,145.82152729999507,145.82152729999507,145.82152729999507,145.82152729999507,145.82152729999507,145.70261509998818,783.0,Audio OUT!,1.0,0.0,1.0,non-target,1/2,sv_t,0.782521800021641,,0.001,UNKNOWN,0.0,,,,,,,,,,,,,,,,,,,,,,,,,,,,,,,,,,,,N,6,普通话,2025-01-02_15h32.07.781,n_back_2,2023.2.1,59.72192277931209,2025-01-02 15h32.28.701998 +0800,
168:210,1/2,2-,single,196.0,1/2,single,1.0,l,8.0,l,0.0,0.0,0.0,0.0,0.0,0.0,0.0,0.0,0.0,27.0,27.0,27.0,,,,,145.82152729999507,,,,,,,,,,,,,,,,,,,,,,,,,,,,,,,,,,,,,,,,,,,,,,,,,,145.7028763999988,145.7030264000059,145.70303589999094,145.82152729999507,145.82152729999507,145.82152729999507,145.82152729999507,145.82152729999507,145.82152729999507,145.82152729999507,145.82152729999507,146.32202849999885,148.1914473999932,l,C:\Users\lujun\Desktop\01_n_back\data/N_6_n_back_2_2025-01-02_15h32.07.781_verval_resp_a_recorded\recording_verval_resp_a_2025-01-02_15h34.56.884.wav,148.1919487999985,148.3906144000066,148.3906144000066,148.3906144000066,148.3906144000066,148.3906144000066,148.3906144000066,148.28317290000268,978.0,Audio OUT!,1.0,1.0,0.0,target,1/2,sv_t,0.9776450999779628,,0.001,UNKNOWN,0.0,,,,,,,,,,,,,,,,,,,,,,,,,,,,,,,,,,,,N,6,普通话,2025-01-02_15h32.07.781,n_back_2,2023.2.1,59.72192277931209,2025-01-02 15h32.28.701998 +0800,
168:210,1/2,2-,single,197.0,1/2,single,4.0,a,8.0,l,0.0,0.0,0.0,0.0,0.0,0.0,0.0,0.0,0.0,28.0,28.0,28.0,,,,,148.3906144000066,,,,,,,,,,,,,,,,,,,,,,,,,,,,,,,,,,,,,,,,,,,,,,,,,,148.28346479998436,148.28361650000443,148.28362760000164,148.3906144000066,148.3906144000066,148.3906144000066,148.3906144000066,148.3906144000066,148.3906144000066,148.3906144000066,148.3906144000066,148.89110509998864,150.7773629000003,a,C:\Users\lujun\Desktop\01_n_back\data/N_6_n_back_2_2025-01-02_15h32.07.781_verval_resp_a_recorded\recording_verval_resp_a_2025-01-02_15h34.59.470.wav,150.77786410000408,150.97843339998508,150.97843339998508,150.97843339998508,150.97843339998508,150.97843339998508,150.97843339998508,150.87293799998588,1348.0,Audio OUT!,1.0,0.0,1.0,non-target,1/2,sv_t,1.348175799997989,,0.001,UNKNOWN,0.0,,,,,,,,,,,,,,,,,,,,,,,,,,,,,,,,,,,,N,6,普通话,2025-01-02_15h32.07.781,n_back_2,2023.2.1,59.72192277931209,2025-01-02 15h32.28.701998 +0800,
168:210,1/2,2-,single,198.0,1/2,single,3.0,a,5.0,a,0.0,0.0,0.0,0.0,0.0,0.0,0.0,0.0,0.0,29.0,29.0,29.0,,,,,150.97843339998508,,,,,,,,,,,,,,,,,,,,,,,,,,,,,,,,,,,,,,,,,,,,,,,,,,150.873194099986,150.87332099999185,150.87333000000217,150.97843339998508,150.97843339998508,150.97843339998508,150.97843339998508,150.97843339998508,150.97843339998508,150.97843339998508,150.97843339998508,151.47962669999106,153.36521139999968,a,C:\Users\lujun\Desktop\01_n_back\data/N_6_n_back_2_2025-01-02_15h32.07.781_verval_resp_a_recorded\recording_verval_resp_a_2025-01-02_15h35.02.057.wav,153.36572469997918,153.56250020000152,153.56250020000152,153.56250020000152,153.56250020000152,153.56250020000152,153.56250020000152,153.45628399998532,1255.0,Audio OUT!,1.0,0.0,1.0,non-target,1/2,sv_t,1.254705999977887,,0.001,UNKNOWN,0.0,,,,,,,,,,,,,,,,,,,,,,,,,,,,,,,,,,,,N,6,普通话,2025-01-02_15h32.07.781,n_back_2,2023.2.1,59.72192277931209,2025-01-02 15h32.28.701998 +0800,
168:210,1/2,2-,single,199.0,1/2,single,4.0,l,5.0,a,0.0,0.0,0.0,0.0,0.0,0.0,0.0,0.0,0.0,30.0,30.0,30.0,,,,,153.56250020000152,,,,,,,,,,,,,,,,,,,,,,,,,,,,,,,,,,,,,,,,,,,,,,,,,,153.45654469999135,153.4566949,153.45670429998427,153.56250020000152,153.56250020000152,153.56250020000152,153.56250020000152,153.56250020000152,153.56250020000152,153.56250020000152,153.56250020000152,154.0631158000033,155.94885129999602,l,C:\Users\lujun\Desktop\01_n_back\data/N_6_n_back_2_2025-01-02_15h32.07.781_verval_resp_a_recorded\recording_verval_resp_a_2025-01-02_15h35.04.641.wav,155.9493608000048,156.1498511999962,156.1498511999962,156.1498511999962,156.1498511999962,156.1498511999962,156.1498511999962,156.04471789998934,780.0,Audio OUT!,1.0,1.0,0.0,target,1/2,sv_t,0.7796614000108093,,0.001,UNKNOWN,0.0,,,,,,,,,,,,,,,,,,,,,,,,,,,,,,,,,,,,N,6,普通话,2025-01-02_15h32.07.781,n_back_2,2023.2.1,59.72192277931209,2025-01-02 15h32.28.701998 +0800,
168:210,1/2,2-,single,200.0,1/2,single,4.0,a,6.0,a,0.0,0.0,0.0,0.0,0.0,0.0,0.0,0.0,0.0,31.0,31.0,31.0,,,,,156.1498511999962,,,,,,,,,,,,,,,,,,,,,,,,,,,,,,,,,,,,,,,,,,,,,,,,,,156.04497590000392,156.04510729998583,156.0451161999954,156.1498511999962,156.1498511999962,156.1498511999962,156.1498511999962,156.1498511999962,156.1498511999962,156.1498511999962,156.1498511999962,156.65146480000112,158.5371269999887,l,C:\Users\lujun\Desktop\01_n_back\data/N_6_n_back_2_2025-01-02_15h32.07.781_verval_resp_a_recorded\recording_verval_resp_a_2025-01-02_15h35.07.229.wav,158.53765079998993,158.73488619999262,158.73488619999262,158.73488619999262,158.73488619999262,158.73488619999262,158.73488619999262,158.62865719999536,691.0,Audio OUT!,0.0,0.0,0.0,non-target,1/2,sv_t,0.6907257999991998,,0.001,UNKNOWN,0.0,,,,,,,,,,,,,,,,,,,,,,,,,,,,,,,,,,,,N,6,普通话,2025-01-02_15h32.07.781,n_back_2,2023.2.1,59.72192277931209,2025-01-02 15h32.28.701998 +0800,
168:210,1/2,2-,single,201.0,1/2,single,7.0,a,5.0,l,0.0,0.0,0.0,0.0,0.0,0.0,0.0,0.0,0.0,32.0,32.0,32.0,,,,,158.73488619999262,,,,,,,,,,,,,,,,,,,,,,,,,,,,,,,,,,,,,,,,,,,,,,,,,,158.628919699986,158.62905409999075,158.62906289999955,158.73488619999262,158.73488619999262,158.73488619999262,158.73488619999262,158.73488619999262,158.73488619999262,158.73488619999262,158.73488619999262,159.23739049999858,161.12321019999217,a,C:\Users\lujun\Desktop\01_n_back\data/N_6_n_back_2_2025-01-02_15h32.07.781_verval_resp_a_recorded\recording_verval_resp_a_2025-01-02_15h35.09.816.wav,161.12390639999649,161.3226997999882,161.3226997999882,161.3226997999882,161.3226997999882,161.3226997999882,161.3226997999882,161.21854309999617,1395.0,Audio OUT!,1.0,0.0,1.0,non-target,1/2,sv_t,1.3954542000137735,,0.001,UNKNOWN,0.0,,,,,,,,,,,,,,,,,,,,,,,,,,,,,,,,,,,,N,6,普通话,2025-01-02_15h32.07.781,n_back_2,2023.2.1,59.72192277931209,2025-01-02 15h32.28.701998 +0800,
168:210,1/2,2-,single,202.0,1/2,single,4.0,l,1.0,a,0.0,0.0,0.0,0.0,0.0,0.0,0.0,0.0,0.0,33.0,33.0,33.0,,,,,161.3226997999882,,,,,,,,,,,,,,,,,,,,,,,,,,,,,,,,,,,,,,,,,,,,,,,,,,161.2188007000077,161.21894160000377,161.218950999988,161.3226997999882,161.3226997999882,161.3226997999882,161.3226997999882,161.3226997999882,161.3226997999882,161.3226997999882,161.3226997999882,161.82329480000772,163.70883749998757,l,C:\Users\lujun\Desktop\01_n_back\data/N_6_n_back_2_2025-01-02_15h32.07.781_verval_resp_a_recorded\recording_verval_resp_a_2025-01-02_15h35.12.401.wav,163.7093390999944,163.90662639998482,163.90662639998482,163.90662639998482,163.90662639998482,163.90662639998482,163.90662639998482,163.80045869998867,810.0,Audio OUT!,1.0,1.0,0.0,target,1/2,sv_t,0.8101018999877851,,0.001,UNKNOWN,0.0,,,,,,,,,,,,,,,,,,,,,,,,,,,,,,,,,,,,N,6,普通话,2025-01-02_15h32.07.781,n_back_2,2023.2.1,59.72192277931209,2025-01-02 15h32.28.701998 +0800,
168:210,1/2,2-,single,203.0,1/2,single,6.0,a,5.0,l,0.0,0.0,0.0,0.0,0.0,0.0,0.0,0.0,0.0,34.0,34.0,34.0,,,,,163.90662639998482,,,,,,,,,,,,,,,,,,,,,,,,,,,,,,,,,,,,,,,,,,,,,,,,,,163.8007152999926,163.80085770000005,163.80086719998508,163.90662639998482,163.90662639998482,163.90662639998482,163.90662639998482,163.90662639998482,163.90662639998482,163.90662639998482,163.90662639998482,164.4091833999846,166.2950312999892,a,C:\Users\lujun\Desktop\01_n_back\data/N_6_n_back_2_2025-01-02_15h32.07.781_verval_resp_a_recorded\recording_verval_resp_a_2025-01-02_15h35.14.987.wav,166.29553069997928,166.50879170000553,166.50879170000553,166.50879170000553,166.50879170000553,166.50879170000553,166.50879170000553,166.39057240000693,1342.0,Audio OUT!,1.0,0.0,1.0,non-target,1/2,sv_t,1.341684000013629,,0.001,UNKNOWN,0.0,,,,,,,,,,,,,,,,,,,,,,,,,,,,,,,,,,,,N,6,普通话,2025-01-02_15h32.07.781,n_back_2,2023.2.1,59.72192277931209,2025-01-02 15h32.28.701998 +0800,
168:210,1/2,2-,single,204.0,1/2,single,1.0,a,4.0,a,0.0,0.0,0.0,0.0,0.0,0.0,0.0,0.0,0.0,35.0,35.0,35.0,,,,,166.50879170000553,,,,,,,,,,,,,,,,,,,,,,,,,,,,,,,,,,,,,,,,,,,,,,,,,,166.3908311999985,166.390960299992,166.39096920000156,166.50879170000553,166.50879170000553,166.50879170000553,166.50879170000553,166.50879170000553,166.50879170000553,166.50879170000553,166.50879170000553,167.00923049999983,168.8784253000049,a,C:\Users\lujun\Desktop\01_n_back\data/N_6_n_back_2_2025-01-02_15h32.07.781_verval_resp_a_recorded\recording_verval_resp_a_2025-01-02_15h35.17.570.wav,168.87895189999836,169.07844189999742,169.07844189999742,169.07844189999742,169.07844189999742,169.07844189999742,169.07844189999742,168.9706237000064,742.0,Audio OUT!,1.0,0.0,1.0,non-target,1/2,sv_t,0.7416514000215102,,0.001,UNKNOWN,0.0,,,,,,,,,,,,,,,,,,,,,,,,,,,,,,,,,,,,N,6,普通话,2025-01-02_15h32.07.781,n_back_2,2023.2.1,59.72192277931209,2025-01-02 15h32.28.701998 +0800,
168:210,1/2,2-,single,205.0,1/2,single,6.0,l,5.0,l,0.0,0.0,0.0,0.0,0.0,0.0,0.0,0.0,0.0,36.0,36.0,36.0,,,,,169.07844189999742,,,,,,,,,,,,,,,,,,,,,,,,,,,,,,,,,,,,,,,,,,,,,,,,,,168.9708764999814,168.97101059998386,168.97101969999494,169.07844189999742,169.07844189999742,169.07844189999742,169.07844189999742,169.07844189999742,169.07844189999742,169.07844189999742,169.07844189999742,169.57860300000175,171.46489919998567,l,C:\Users\lujun\Desktop\01_n_back\data/N_6_n_back_2_2025-01-02_15h32.07.781_verval_resp_a_recorded\recording_verval_resp_a_2025-01-02_15h35.20.158.wav,171.46540739998454,171.68073130000266,171.68073130000266,171.68073130000266,171.68073130000266,171.68073130000266,171.68073130000266,171.5610984999803,811.0,Audio OUT!,1.0,1.0,0.0,target,1/2,sv_t,0.810742300003767,,0.001,UNKNOWN,0.0,,,,,,,,,,,,,,,,,,,,,,,,,,,,,,,,,,,,N,6,普通话,2025-01-02_15h32.07.781,n_back_2,2023.2.1,59.72192277931209,2025-01-02 15h32.28.701998 +0800,
168:210,1/2,2-,single,206.0,1/2,single,8.0,a,1.0,a,0.0,0.0,0.0,0.0,0.0,0.0,0.0,0.0,0.0,37.0,37.0,37.0,,,,,171.68073130000266,,,,,,,,,,,,,,,,,,,,,,,,,,,,,,,,,,,,,,,,,,,,,,,,,,171.5613589999848,171.56151159998262,171.56153690000065,171.68073130000266,171.68073130000266,171.68073130000266,171.68073130000266,171.68073130000266,171.68073130000266,171.68073130000266,171.68073130000266,172.18117349999375,174.05035829998087,a,C:\Users\lujun\Desktop\01_n_back\data/N_6_n_back_2_2025-01-02_15h32.07.781_verval_resp_a_recorded\recording_verval_resp_a_2025-01-02_15h35.22.743.wav,174.05091829999583,174.24981750000734,174.24981750000734,174.24981750000734,174.24981750000734,174.24981750000734,174.24981750000734,174.14174719998846,1166.0,Audio OUT!,1.0,0.0,1.0,non-target,1/2,sv_t,1.1662269000080414,,0.001,UNKNOWN,0.0,,,,,,,,,,,,,,,,,,,,,,,,,,,,,,,,,,,,N,6,普通话,2025-01-02_15h32.07.781,n_back_2,2023.2.1,59.72192277931209,2025-01-02 15h32.28.701998 +0800,
168:210,1/2,2-,single,207.0,1/2,single,1.0,a,4.0,a,0.0,0.0,0.0,0.0,0.0,0.0,0.0,0.0,0.0,38.0,38.0,38.0,,,,,174.24981750000734,,,,,,,,,,,,,,,,,,,,,,,,,,,,,,,,,,,,,,,,,,,,,,,,,,174.1420077999937,174.14214379998157,174.14215349999722,174.24981750000734,174.24981750000734,174.24981750000734,174.24981750000734,174.24981750000734,174.24981750000734,174.24981750000734,174.24981750000734,174.7501462000073,176.63617869999143,a,C:\Users\lujun\Desktop\01_n_back\data/N_6_n_back_2_2025-01-02_15h32.07.781_verval_resp_a_recorded\recording_verval_resp_a_2025-01-02_15h35.25.328.wav,176.63677739998093,176.8368036999891,176.8368036999891,176.8368036999891,176.8368036999891,176.8368036999891,176.8368036999891,176.73176639998564,1337.0,Audio OUT!,1.0,0.0,1.0,non-target,1/2,sv_t,1.3370844000019133,,0.001,UNKNOWN,0.0,,,,,,,,,,,,,,,,,,,,,,,,,,,,,,,,,,,,N,6,普通话,2025-01-02_15h32.07.781,n_back_2,2023.2.1,59.72192277931209,2025-01-02 15h32.28.701998 +0800,
168:210,1/2,2-,single,208.0,1/2,single,8.0,l,7.0,a,0.0,0.0,0.0,0.0,0.0,0.0,0.0,0.0,0.0,39.0,39.0,39.0,,,,,176.8368036999891,,,,,,,,,,,,,,,,,,,,,,,,,,,,,,,,,,,,,,,,,,,,,,,,,,176.7320214000065,176.7321843999962,176.7321968000033,176.8368036999891,176.8368036999891,176.8368036999891,176.8368036999891,176.8368036999891,176.8368036999891,176.8368036999891,176.8368036999891,177.3386271999916,179.2243094999867,l,C:\Users\lujun\Desktop\01_n_back\data/N_6_n_back_2_2025-01-02_15h32.07.781_verval_resp_a_recorded\recording_verval_resp_a_2025-01-02_15h35.27.917.wav,179.22482830000808,179.4220537999936,179.4220537999936,179.4220537999936,179.4220537999936,179.4220537999936,179.4220537999936,179.31558779999614,958.0,Audio OUT!,1.0,1.0,0.0,target,1/2,sv_t,0.9582012000028044,,0.001,UNKNOWN,0.0,,,,,,,,,,,,,,,,,,,,,,,,,,,,,,,,,,,,N,6,普通话,2025-01-02_15h32.07.781,n_back_2,2023.2.1,59.72192277931209,2025-01-02 15h32.28.701998 +0800,
168:210,1/2,2-,single,209.0,1/2,single,5.0,a,4.0,l,0.0,0.0,0.0,0.0,0.0,0.0,0.0,0.0,0.0,40.0,40.0,40.0,,,,,179.4220537999936,,,,,,,,,,,,,,,,,,,,,,,,,,,,,,,,,,,,,,,,,,,,,,,,,,179.3158768999856,179.31603270000778,179.31604370000423,179.4220537999936,179.4220537999936,179.4220537999936,179.4220537999936,179.4220537999936,179.4220537999936,179.4220537999936,179.4220537999936,179.9247545999824,181.8106208999816,a,C:\Users\lujun\Desktop\01_n_back\data/N_6_n_back_2_2025-01-02_15h32.07.781_verval_resp_a_recorded\recording_verval_resp_a_2025-01-02_15h35.30.503.wav,181.8111998999957,182.0246322999883,182.0246322999883,182.0246322999883,182.0246322999883,182.0246322999883,182.0246322999883,181.90607779999849,1642.0,Audio OUT!,1.0,0.0,1.0,non-target,1/2,sv_t,1.6424630999972578,,0.001,UNKNOWN,0.0,,,,,,,,,,,,,,,,,,,,,,,,,,,,,,,,,,,,N,6,普通话,2025-01-02_15h32.07.781,n_back_2,2023.2.1,59.72192277931209,2025-01-02 15h32.28.701998 +0800,
168:210,1/2,2-,single,210.0,1/2,single,8.0,l,8.0,a,0.0,0.0,0.0,0.0,0.0,0.0,0.0,0.0,0.0,41.0,41.0,41.0,,,,,182.0246322999883,,,,,,,,,,,,,,,,,,,,,,,,,,,,,,,,,,,,,,,,,,,,,,,,,,181.9063373999961,181.9064765000076,181.90648559998957,182.0246322999883,182.0246322999883,182.0246322999883,182.0246322999883,182.0246322999883,182.0246322999883,182.0246322999883,182.0246322999883,182.52468679999583,184.39401419999197,l,C:\Users\lujun\Desktop\01_n_back\data/N_6_n_back_2_2025-01-02_15h32.07.781_verval_resp_a_recorded\recording_verval_resp_a_2025-01-02_15h35.33.086.wav,184.39452199998777,184.5101267999853,184.5101267999853,184.5101267999853,184.5101267999853,184.5101267999853,184.5101267999853,184.48606359999397,730.0,Audio OUT!,1.0,1.0,0.0,target,1/2,sv_t,0.7303972000081558,,0.001,UNKNOWN,0.0,,,,,,,,,,,,,,,,,,,,,,,,,,,,,,,,,,,,N,6,普通话,2025-01-02_15h32.07.781,n_back_2,2023.2.1,59.72192277931209,2025-01-02 15h32.28.701998 +0800,
168:210,1/2,2-,single,,,,,,,,0.0,0.0,0.0,0.0,0.0,0.0,0.0,0.0,,,,,,,,,,,,,,,,,,,,,,,,,,,,,,,,,,,,,,,,,,,,,,,,,,,,,,,,,,,,,,,,,,,,,,,,,,,,,,,,,,,,,,,,,,,,,,,184.4861689999816,184.5101267999853,184.5101267999853,184.5101267999853,186.4790781000047,,,,,,,,,,,,,,,,,,,,,,,,,,,,,,,N,6,普通话,2025-01-02_15h32.07.781,n_back_2,2023.2.1,59.72192277931209,2025-01-02 15h32.28.701998 +0800,
210:252,2/2,2-,single,211.0,2/2,single,7.0,control,5.0,control,0.0,0.0,0.0,0.0,0.0,1.0,1.0,1.0,0.0,0.0,0.0,0.0,,,,,191.1536100999801,,,,,,,,,,,,,,,,,,,,,,,,,,,,,,,186.4794852999912,186.49533819998032,186.49533819998032,186.49533819998032,186.49533819998032,189.8999111999874,l,3.403186800016556,,189.90017139998963,190.0155667999934,190.0155667999934,190.0155667999934,190.0155667999934,191.1536100999801,191.1536100999801,191.1536100999801,191.1536100999801,191.0002511999919,191.0388127999904,191.03909989999372,191.039111399994,191.1536100999801,191.1536100999801,191.1536100999801,191.1536100999801,191.1536100999801,191.1536100999801,191.1536100999801,191.1536100999801,191.652712399984,193.52206799999112,a,C:\Users\lujun\Desktop\01_n_back\data/N_6_n_back_2_2025-01-02_15h32.07.781_verval_resp_a_recorded\recording_verval_resp_a_2025-01-02_15h35.42.214.wav,193.5227978999901,193.73591089999536,193.73591089999536,193.73591089999536,193.73591089999536,193.73591089999536,193.73591089999536,193.61777330000768,753.0,Audio OUT!,0.0,0.0,0.0,control,2/2,sv_t,0.7528458000160754,,0.001,UNKNOWN,0.0,,,,,,,,,,,,,,,,,,,,,,,,,,,,,,,,,,,,N,6,普通话,2025-01-02_15h32.07.781,n_back_2,2023.2.1,59.72192277931209,2025-01-02 15h32.28.701998 +0800,
210:252,2/2,2-,single,212.0,2/2,single,3.0,control,1.0,control,0.0,0.0,0.0,0.0,0.0,1.0,1.0,1.0,0.0,1.0,1.0,1.0,,,,,193.73591089999536,,,,,,,,,,,,,,,,,,,,,,,,,,,,,,,,,,,,,,,,,,,,,,,,,,193.6180352999945,193.6181660000002,193.61817489998063,193.73591089999536,193.73591089999536,193.73591089999536,193.73591089999536,193.73591089999536,193.73591089999536,193.73591089999536,193.73591089999536,194.23684639998828,196.105979999993,,C:\Users\lujun\Desktop\01_n_back\data/N_6_n_back_2_2025-01-02_15h32.07.781_verval_resp_a_recorded\recording_verval_resp_a_2025-01-02_15h35.44.798.wav,196.10638859999017,196.3064219999942,196.3064219999942,196.3064219999942,196.3064219999942,196.3064219999942,196.3064219999942,196.1993312999839,[],Audio OUT!,0.0,0.0,0.0,control,2/2,sv_t,0.001,,0.001,UNKNOWN,0.0,,,,,,,,,,,,,,,,,,,,,,,,,,,,,,,,,,,,N,6,普通话,2025-01-02_15h32.07.781,n_back_2,2023.2.1,59.72192277931209,2025-01-02 15h32.28.701998 +0800,
210:252,2/2,2-,single,213.0,2/2,single,1.0,a,1.0,a,0.0,0.0,0.0,0.0,0.0,1.0,1.0,1.0,0.0,2.0,2.0,2.0,,,,,196.3064219999942,,,,,,,,,,,,,,,,,,,,,,,,,,,,,,,,,,,,,,,,,,,,,,,,,,196.199603999994,196.19975080000583,196.19976039999165,196.3064219999942,196.3064219999942,196.3064219999942,196.3064219999942,196.3064219999942,196.3064219999942,196.3064219999942,196.3064219999942,196.80838309999672,198.69398310000545,a,C:\Users\lujun\Desktop\01_n_back\data/N_6_n_back_2_2025-01-02_15h32.07.781_verval_resp_a_recorded\recording_verval_resp_a_2025-01-02_15h35.47.386.wav,198.69469790000585,198.9077374000044,198.9077374000044,198.9077374000044,198.9077374000044,198.9077374000044,198.9077374000044,198.7896148999862,557.0,Audio OUT!,1.0,0.0,1.0,non-target,2/2,sv_t,0.556826700019883,,0.001,UNKNOWN,0.0,,,,,,,,,,,,,,,,,,,,,,,,,,,,,,,,,,,,N,6,普通话,2025-01-02_15h32.07.781,n_back_2,2023.2.1,59.72192277931209,2025-01-02 15h32.28.701998 +0800,
210:252,2/2,2-,single,214.0,2/2,single,3.0,l,3.0,a,0.0,0.0,0.0,0.0,0.0,1.0,1.0,1.0,0.0,3.0,3.0,3.0,,,,,198.9077374000044,,,,,,,,,,,,,,,,,,,,,,,,,,,,,,,,,,,,,,,,,,,,,,,,,,198.7898735000053,198.79000229999656,198.7900112000061,198.9077374000044,198.9077374000044,198.9077374000044,198.9077374000044,198.9077374000044,198.9077374000044,198.9077374000044,198.9077374000044,199.40822179999668,201.2778767999844,a,C:\Users\lujun\Desktop\01_n_back\data/N_6_n_back_2_2025-01-02_15h32.07.781_verval_resp_a_recorded\recording_verval_resp_a_2025-01-02_15h35.49.971.wav,201.27839349998976,201.4772318000032,201.4772318000032,201.4772318000032,201.4772318000032,201.4772318000032,201.4772318000032,201.3699115999916,906.0,Audio OUT!,0.0,0.0,0.0,target,2/2,sv_t,0.905591300019296,,0.001,UNKNOWN,0.0,,,,,,,,,,,,,,,,,,,,,,,,,,,,,,,,,,,,N,6,普通话,2025-01-02_15h32.07.781,n_back_2,2023.2.1,59.72192277931209,2025-01-02 15h32.28.701998 +0800,
210:252,2/2,2-,single,215.0,2/2,single,6.0,a,8.0,a,0.0,0.0,0.0,0.0,0.0,1.0,1.0,1.0,0.0,4.0,4.0,4.0,,,,,201.4772318000032,,,,,,,,,,,,,,,,,,,,,,,,,,,,,,,,,,,,,,,,,,,,,,,,,,201.3701733000053,201.37031269998988,201.370322200004,201.4772318000032,201.4772318000032,201.4772318000032,201.4772318000032,201.4772318000032,201.4772318000032,201.4772318000032,201.4772318000032,201.97723950000363,203.86316439998336,a,C:\Users\lujun\Desktop\01_n_back\data/N_6_n_back_2_2025-01-02_15h32.07.781_verval_resp_a_recorded\recording_verval_resp_a_2025-01-02_15h35.52.556.wav,203.8636675000016,204.0643191999989,204.0643191999989,204.0643191999989,204.0643191999989,204.0643191999989,204.0643191999989,203.95931519998703,1215.0,Audio OUT!,1.0,0.0,1.0,non-target,2/2,sv_t,1.21540119999554,,0.001,UNKNOWN,0.0,,,,,,,,,,,,,,,,,,,,,,,,,,,,,,,,,,,,N,6,普通话,2025-01-02_15h32.07.781,n_back_2,2023.2.1,59.72192277931209,2025-01-02 15h32.28.701998 +0800,
210:252,2/2,2-,single,216.0,2/2,single,1.0,a,3.0,l,0.0,0.0,0.0,0.0,0.0,1.0,1.0,1.0,0.0,5.0,5.0,5.0,,,,,204.0643191999989,,,,,,,,,,,,,,,,,,,,,,,,,,,,,,,,,,,,,,,,,,,,,,,,,,203.95958299998887,203.9597294999985,203.95973859998048,204.0643191999989,204.0643191999989,204.0643191999989,204.0643191999989,204.0643191999989,204.0643191999989,204.0643191999989,204.0643191999989,204.565552199987,206.45143869999447,a,C:\Users\lujun\Desktop\01_n_back\data/N_6_n_back_2_2025-01-02_15h32.07.781_verval_resp_a_recorded\recording_verval_resp_a_2025-01-02_15h35.55.144.wav,206.45195200000308,206.6493855000008,206.6493855000008,206.6493855000008,206.6493855000008,206.6493855000008,206.6493855000008,206.54296809999505,1306.0,Audio OUT!,1.0,0.0,1.0,non-target,2/2,sv_t,1.3064454999985171,,0.001,UNKNOWN,0.0,,,,,,,,,,,,,,,,,,,,,,,,,,,,,,,,,,,,N,6,普通话,2025-01-02_15h32.07.781,n_back_2,2023.2.1,59.72192277931209,2025-01-02 15h32.28.701998 +0800,
210:252,2/2,2-,single,217.0,2/2,single,6.0,l,8.0,l,0.0,0.0,0.0,0.0,0.0,1.0,1.0,1.0,0.0,6.0,6.0,6.0,,,,,206.6493855000008,,,,,,,,,,,,,,,,,,,,,,,,,,,,,,,,,,,,,,,,,,,,,,,,,,206.5432281999965,206.54336799998416,206.54337679999296,206.6493855000008,206.6493855000008,206.6493855000008,206.6493855000008,206.6493855000008,206.6493855000008,206.6493855000008,206.6493855000008,207.15145750000372,209.0374710999895,l,C:\Users\lujun\Desktop\01_n_back\data/N_6_n_back_2_2025-01-02_15h32.07.781_verval_resp_a_recorded\recording_verval_resp_a_2025-01-02_15h35.57.730.wav,209.03810410000733,209.2519537000044,209.2519537000044,209.2519537000044,209.2519537000044,209.2519537000044,209.2519537000044,209.134712900006,638.0,Audio OUT!,1.0,1.0,0.0,target,2/2,sv_t,0.6383444000093732,,0.001,UNKNOWN,0.0,,,,,,,,,,,,,,,,,,,,,,,,,,,,,,,,,,,,N,6,普通话,2025-01-02_15h32.07.781,n_back_2,2023.2.1,59.72192277931209,2025-01-02 15h32.28.701998 +0800,
210:252,2/2,2-,single,218.0,2/2,single,1.0,l,2.0,a,0.0,0.0,0.0,0.0,0.0,1.0,1.0,1.0,0.0,7.0,7.0,7.0,,,,,209.2519537000044,,,,,,,,,,,,,,,,,,,,,,,,,,,,,,,,,,,,,,,,,,,,,,,,,,209.1350027000008,209.13514989998657,209.13516109998451,209.2519537000044,209.2519537000044,209.2519537000044,209.2519537000044,209.2519537000044,209.2519537000044,209.2519537000044,209.2519537000044,209.7525598999928,211.6211754999822,l,C:\Users\lujun\Desktop\01_n_back\data/N_6_n_back_2_2025-01-02_15h32.07.781_verval_resp_a_recorded\recording_verval_resp_a_2025-01-02_15h36.00.313.wav,211.6217554000032,211.82062779998523,211.82062779998523,211.82062779998523,211.82062779998523,211.82062779998523,211.82062779998523,211.7135639000044,788.0,Audio OUT!,1.0,1.0,0.0,target,2/2,sv_t,0.7882140000001527,,0.001,UNKNOWN,0.0,,,,,,,,,,,,,,,,,,,,,,,,,,,,,,,,,,,,N,6,普通话,2025-01-02_15h32.07.781,n_back_2,2023.2.1,59.72192277931209,2025-01-02 15h32.28.701998 +0800,
210:252,2/2,2-,single,219.0,2/2,single,7.0,a,7.0,a,0.0,0.0,0.0,0.0,0.0,1.0,1.0,1.0,0.0,8.0,8.0,8.0,,,,,211.82062779998523,,,,,,,,,,,,,,,,,,,,,,,,,,,,,,,,,,,,,,,,,,,,,,,,,,211.7138558999868,211.7140206999902,211.71403189998816,211.82062779998523,211.82062779998523,211.82062779998523,211.82062779998523,211.82062779998523,211.82062779998523,211.82062779998523,211.82062779998523,212.32123549998505,214.2070208999794,a,C:\Users\lujun\Desktop\01_n_back\data/N_6_n_back_2_2025-01-02_15h32.07.781_verval_resp_a_recorded\recording_verval_resp_a_2025-01-02_15h36.02.899.wav,214.2076562999864,214.4086416999926,214.4086416999926,214.4086416999926,214.4086416999926,214.4086416999926,214.4086416999926,214.30325719999385,794.0,Audio OUT!,1.0,0.0,1.0,non-target,2/2,sv_t,0.7942705000168644,,0.001,UNKNOWN,0.0,,,,,,,,,,,,,,,,,,,,,,,,,,,,,,,,,,,,N,6,普通话,2025-01-02_15h32.07.781,n_back_2,2023.2.1,59.72192277931209,2025-01-02 15h32.28.701998 +0800,
210:252,2/2,2-,single,220.0,2/2,single,2.0,a,2.0,l,0.0,0.0,0.0,0.0,0.0,1.0,1.0,1.0,0.0,9.0,9.0,9.0,,,,,214.4086416999926,,,,,,,,,,,,,,,,,,,,,,,,,,,,,,,,,,,,,,,,,,,,,,,,,,214.30355650000277,214.30369619998964,214.3037052,214.4086416999926,214.4086416999926,214.4086416999926,214.4086416999926,214.4086416999926,214.4086416999926,214.4086416999926,214.4086416999926,214.9091947999841,216.79578819999008,a,C:\Users\lujun\Desktop\01_n_back\data/N_6_n_back_2_2025-01-02_15h32.07.781_verval_resp_a_recorded\recording_verval_resp_a_2025-01-02_15h36.05.488.wav,216.79636000000755,216.9939666999853,216.9939666999853,216.9939666999853,216.9939666999853,216.9939666999853,216.9939666999853,216.88772949998383,1096.0,Audio OUT!,1.0,0.0,1.0,non-target,2/2,sv_t,1.0957899000204634,,0.001,UNKNOWN,0.0,,,,,,,,,,,,,,,,,,,,,,,,,,,,,,,,,,,,N,6,普通话,2025-01-02_15h32.07.781,n_back_2,2023.2.1,59.72192277931209,2025-01-02 15h32.28.701998 +0800,
210:252,2/2,2-,single,221.0,2/2,single,7.0,l,7.0,l,0.0,0.0,0.0,0.0,0.0,1.0,1.0,1.0,0.0,10.0,10.0,10.0,,,,,216.9939666999853,,,,,,,,,,,,,,,,,,,,,,,,,,,,,,,,,,,,,,,,,,,,,,,,,,216.88803559998632,216.8881885999872,216.88819779999903,216.9939666999853,216.9939666999853,216.9939666999853,216.9939666999853,216.9939666999853,216.9939666999853,216.9939666999853,216.9939666999853,217.49515889998293,219.3812259999977,l,C:\Users\lujun\Desktop\01_n_back\data/N_6_n_back_2_2025-01-02_15h32.07.781_verval_resp_a_recorded\recording_verval_resp_a_2025-01-02_15h36.08.074.wav,219.3817519999866,219.59500979998847,219.59500979998847,219.59500979998847,219.59500979998847,219.59500979998847,219.59500979998847,219.47702550000395,814.0,Audio OUT!,1.0,1.0,0.0,target,2/2,sv_t,0.814203699992504,,0.001,UNKNOWN,0.0,,,,,,,,,,,,,,,,,,,,,,,,,,,,,,,,,,,,N,6,普通话,2025-01-02_15h32.07.781,n_back_2,2023.2.1,59.72192277931209,2025-01-02 15h32.28.701998 +0800,
210:252,2/2,2-,single,222.0,2/2,single,2.0,l,8.0,a,0.0,0.0,0.0,0.0,0.0,1.0,1.0,1.0,0.0,11.0,11.0,11.0,,,,,219.59500979998847,,,,,,,,,,,,,,,,,,,,,,,,,,,,,,,,,,,,,,,,,,,,,,,,,,219.4772851000016,219.47741849999875,219.4774276999815,219.59500979998847,219.59500979998847,219.59500979998847,219.59500979998847,219.59500979998847,219.59500979998847,219.59500979998847,219.59500979998847,220.09542589998452,221.96486579999328,l,C:\Users\lujun\Desktop\01_n_back\data/N_6_n_back_2_2025-01-02_15h32.07.781_verval_resp_a_recorded\recording_verval_resp_a_2025-01-02_15h36.10.657.wav,221.9653732999868,222.1642426000035,222.1642426000035,222.1642426000035,222.1642426000035,222.1642426000035,222.1642426000035,222.05677189998096,721.0,Audio OUT!,1.0,1.0,0.0,target,2/2,sv_t,0.7209014999971259,,0.001,UNKNOWN,0.0,,,,,,,,,,,,,,,,,,,,,,,,,,,,,,,,,,,,N,6,普通话,2025-01-02_15h32.07.781,n_back_2,2023.2.1,59.72192277931209,2025-01-02 15h32.28.701998 +0800,
210:252,2/2,2-,single,223.0,2/2,single,5.0,a,7.0,l,0.0,0.0,0.0,0.0,0.0,1.0,1.0,1.0,0.0,12.0,12.0,12.0,,,,,222.1642426000035,,,,,,,,,,,,,,,,,,,,,,,,,,,,,,,,,,,,,,,,,,,,,,,,,,222.05703269998776,222.0571740999876,222.05718350000097,222.1642426000035,222.1642426000035,222.1642426000035,222.1642426000035,222.1642426000035,222.1642426000035,222.1642426000035,222.1642426000035,222.6646494999877,224.5507907999854,a,C:\Users\lujun\Desktop\01_n_back\data/N_6_n_back_2_2025-01-02_15h32.07.781_verval_resp_a_recorded\recording_verval_resp_a_2025-01-02_15h36.13.243.wav,224.5513444999815,224.75155809998975,224.75155809998975,224.75155809998975,224.75155809998975,224.75155809998975,224.75155809998975,224.6463109999895,1161.0,Audio OUT!,1.0,0.0,1.0,non-target,2/2,sv_t,1.1608992000110447,,0.001,UNKNOWN,0.0,,,,,,,,,,,,,,,,,,,,,,,,,,,,,,,,,,,,N,6,普通话,2025-01-02_15h32.07.781,n_back_2,2023.2.1,59.72192277931209,2025-01-02 15h32.28.701998 +0800,
210:252,2/2,2-,single,224.0,2/2,single,7.0,a,2.0,a,0.0,0.0,0.0,0.0,0.0,1.0,1.0,1.0,0.0,13.0,13.0,13.0,,,,,224.75155809998975,,,,,,,,,,,,,,,,,,,,,,,,,,,,,,,,,,,,,,,,,,,,,,,,,,224.6465733999794,224.6467153999838,224.64672409999184,224.75155809998975,224.75155809998975,224.75155809998975,224.75155809998975,224.75155809998975,224.75155809998975,224.75155809998975,224.75155809998975,225.2529474000039,227.1390857999795,a,C:\Users\lujun\Desktop\01_n_back\data/N_6_n_back_2_2025-01-02_15h32.07.781_verval_resp_a_recorded\recording_verval_resp_a_2025-01-02_15h36.15.831.wav,227.13961009998457,227.33650069998112,227.33650069998112,227.33650069998112,227.33650069998112,227.33650069998112,227.33650069998112,227.2311178999953,998.0,Audio OUT!,1.0,0.0,1.0,non-target,2/2,sv_t,0.99751750001451,,0.001,UNKNOWN,0.0,,,,,,,,,,,,,,,,,,,,,,,,,,,,,,,,,,,,N,6,普通话,2025-01-02_15h32.07.781,n_back_2,2023.2.1,59.72192277931209,2025-01-02 15h32.28.701998 +0800,
210:252,2/2,2-,single,225.0,2/2,single,8.0,a,7.0,l,0.0,0.0,0.0,0.0,0.0,1.0,1.0,1.0,0.0,14.0,14.0,14.0,,,,,227.33650069998112,,,,,,,,,,,,,,,,,,,,,,,,,,,,,,,,,,,,,,,,,,,,,,,,,,227.23137389999465,227.23150709999027,227.23151640000287,227.33650069998112,227.33650069998112,227.33650069998112,227.33650069998112,227.33650069998112,227.33650069998112,227.33650069998112,227.33650069998112,227.8391477999976,229.725213800004,a,C:\Users\lujun\Desktop\01_n_back\data/N_6_n_back_2_2025-01-02_15h32.07.781_verval_resp_a_recorded\recording_verval_resp_a_2025-01-02_15h36.18.418.wav,229.7259739000001,229.93925070000117,229.93925070000117,229.93925070000117,229.93925070000117,229.93925070000117,229.93925070000117,229.8211518999888,799.0,Audio OUT!,1.0,0.0,1.0,non-target,2/2,sv_t,0.7985766000056174,,0.001,UNKNOWN,0.0,,,,,,,,,,,,,,,,,,,,,,,,,,,,,,,,,,,,N,6,普通话,2025-01-02_15h32.07.781,n_back_2,2023.2.1,59.72192277931209,2025-01-02 15h32.28.701998 +0800,
210:252,2/2,2-,single,226.0,2/2,single,7.0,l,3.0,a,0.0,0.0,0.0,0.0,0.0,1.0,1.0,1.0,0.0,15.0,15.0,15.0,,,,,229.93925070000117,,,,,,,,,,,,,,,,,,,,,,,,,,,,,,,,,,,,,,,,,,,,,,,,,,229.8214095000003,229.82154879998416,229.821557999996,229.93925070000117,229.93925070000117,229.93925070000117,229.93925070000117,229.93925070000117,229.93925070000117,229.93925070000117,229.93925070000117,230.4390088999935,232.30877579998923,l,C:\Users\lujun\Desktop\01_n_back\data/N_6_n_back_2_2025-01-02_15h32.07.781_verval_resp_a_recorded\recording_verval_resp_a_2025-01-02_15h36.21.001.wav,232.3092842999904,232.50809129999837,232.50809129999837,232.50809129999837,232.50809129999837,232.50809129999837,232.50809129999837,232.40117979998467,885.0,Audio OUT!,1.0,1.0,0.0,target,2/2,sv_t,0.8851123999920674,,0.001,UNKNOWN,0.0,,,,,,,,,,,,,,,,,,,,,,,,,,,,,,,,,,,,N,6,普通话,2025-01-02_15h32.07.781,n_back_2,2023.2.1,59.72192277931209,2025-01-02 15h32.28.701998 +0800,
210:252,2/2,2-,single,227.0,2/2,single,4.0,a,6.0,a,0.0,0.0,0.0,0.0,0.0,1.0,1.0,1.0,0.0,16.0,16.0,16.0,,,,,232.50809129999837,,,,,,,,,,,,,,,,,,,,,,,,,,,,,,,,,,,,,,,,,,,,,,,,,,232.40146809999715,232.4016220000049,232.4016325999983,232.50809129999837,232.50809129999837,232.50809129999837,232.50809129999837,232.50809129999837,232.50809129999837,232.50809129999837,232.50809129999837,233.00827890000076,234.89425819998723,a,C:\Users\lujun\Desktop\01_n_back\data/N_6_n_back_2_2025-01-02_15h32.07.781_verval_resp_a_recorded\recording_verval_resp_a_2025-01-02_15h36.23.587.wav,234.8947607000009,235.09507899999156,235.09507899999156,235.09507899999156,235.09507899999156,235.09507899999156,235.09507899999156,234.9894957999932,1739.0,Audio OUT!,1.0,0.0,1.0,non-target,2/2,sv_t,1.739230600011069,,0.001,UNKNOWN,0.0,,,,,,,,,,,,,,,,,,,,,,,,,,,,,,,,,,,,N,6,普通话,2025-01-02_15h32.07.781,n_back_2,2023.2.1,59.72192277931209,2025-01-02 15h32.28.701998 +0800,
210:252,2/2,2-,single,228.0,2/2,single,3.0,a,3.0,l,0.0,0.0,0.0,0.0,0.0,1.0,1.0,1.0,0.0,17.0,17.0,17.0,,,,,235.09507899999156,,,,,,,,,,,,,,,,,,,,,,,,,,,,,,,,,,,,,,,,,,,,,,,,,,234.98975409998093,234.98989729999448,234.9899063000048,235.09507899999156,235.09507899999156,235.09507899999156,235.09507899999156,235.09507899999156,235.09507899999156,235.09507899999156,235.09507899999156,235.59665580000728,237.48227659999972,a,C:\Users\lujun\Desktop\01_n_back\data/N_6_n_back_2_2025-01-02_15h32.07.781_verval_resp_a_recorded\recording_verval_resp_a_2025-01-02_15h36.26.174.wav,237.48278349998876,237.6797553999932,237.6797553999932,237.6797553999932,237.6797553999932,237.6797553999932,237.6797553999932,237.57378429998064,947.0,Audio OUT!,1.0,0.0,1.0,non-target,2/2,sv_t,0.9468208000180312,,0.001,UNKNOWN,0.0,,,,,,,,,,,,,,,,,,,,,,,,,,,,,,,,,,,,N,6,普通话,2025-01-02_15h32.07.781,n_back_2,2023.2.1,59.72192277931209,2025-01-02 15h32.28.701998 +0800,
210:252,2/2,2-,single,229.0,2/2,single,4.0,l,4.0,a,0.0,0.0,0.0,0.0,0.0,1.0,1.0,1.0,0.0,18.0,18.0,18.0,,,,,237.6797553999932,,,,,,,,,,,,,,,,,,,,,,,,,,,,,,,,,,,,,,,,,,,,,,,,,,237.57404609999503,237.57417539999005,237.5741840999981,237.6797553999932,237.6797553999932,237.6797553999932,237.6797553999932,237.6797553999932,237.6797553999932,237.6797553999932,237.6797553999932,238.1800937999797,240.06588199999533,l,C:\Users\lujun\Desktop\01_n_back\data/N_6_n_back_2_2025-01-02_15h32.07.781_verval_resp_a_recorded\recording_verval_resp_a_2025-01-02_15h36.28.758.wav,240.0663872000005,240.26757820000057,240.26757820000057,240.26757820000057,240.26757820000057,240.26757820000057,240.26757820000057,240.1614458999829,708.0,Audio OUT!,1.0,1.0,0.0,target,2/2,sv_t,0.7083230999996886,,0.001,UNKNOWN,0.0,,,,,,,,,,,,,,,,,,,,,,,,,,,,,,,,,,,,N,6,普通话,2025-01-02_15h32.07.781,n_back_2,2023.2.1,59.72192277931209,2025-01-02 15h32.28.701998 +0800,
210:252,2/2,2-,single,230.0,2/2,single,8.0,a,8.0,a,0.0,0.0,0.0,0.0,0.0,1.0,1.0,1.0,0.0,19.0,19.0,19.0,,,,,240.26757820000057,,,,,,,,,,,,,,,,,,,,,,,,,,,,,,,,,,,,,,,,,,,,,,,,,,240.1617022999853,240.1618435999844,240.1618523999932,240.26757820000057,240.26757820000057,240.26757820000057,240.26757820000057,240.26757820000057,240.26757820000057,240.26757820000057,240.26757820000057,240.7684834999964,242.6542897000036,a,C:\Users\lujun\Desktop\01_n_back\data/N_6_n_back_2_2025-01-02_15h32.07.781_verval_resp_a_recorded\recording_verval_resp_a_2025-01-02_15h36.31.347.wav,242.65499549999367,242.85227469998063,242.85227469998063,242.85227469998063,242.85227469998063,242.85227469998063,242.85227469998063,242.7461348999932,1281.0,Audio OUT!,1.0,0.0,1.0,non-target,2/2,sv_t,1.281418400001712,,0.001,UNKNOWN,0.0,,,,,,,,,,,,,,,,,,,,,,,,,,,,,,,,,,,,N,6,普通话,2025-01-02_15h32.07.781,n_back_2,2023.2.1,59.72192277931209,2025-01-02 15h32.28.701998 +0800,
210:252,2/2,2-,single,231.0,2/2,single,4.0,l,4.0,l,0.0,0.0,0.0,0.0,0.0,1.0,1.0,1.0,0.0,20.0,20.0,20.0,,,,,242.85227469998063,,,,,,,,,,,,,,,,,,,,,,,,,,,,,,,,,,,,,,,,,,,,,,,,,,242.74639339998248,242.74655179999536,242.746561100008,242.85227469998063,242.85227469998063,242.85227469998063,242.85227469998063,242.85227469998063,242.85227469998063,242.85227469998063,242.85227469998063,243.3544916999817,245.24002679999103,l,C:\Users\lujun\Desktop\01_n_back\data/N_6_n_back_2_2025-01-02_15h32.07.781_verval_resp_a_recorded\recording_verval_resp_a_2025-01-02_15h36.33.932.wav,245.2407699000032,245.45412919999217,245.45412919999217,245.45412919999217,245.45412919999217,245.45412919999217,245.45412919999217,245.3362228999904,856.0,Audio OUT!,1.0,1.0,0.0,target,2/2,sv_t,0.8559623000037391,,0.001,UNKNOWN,0.0,,,,,,,,,,,,,,,,,,,,,,,,,,,,,,,,,,,,N,6,普通话,2025-01-02_15h32.07.781,n_back_2,2023.2.1,59.72192277931209,2025-01-02 15h32.28.701998 +0800,
210:252,2/2,2-,single,232.0,2/2,single,8.0,l,6.0,a,0.0,0.0,0.0,0.0,0.0,1.0,1.0,1.0,0.0,21.0,21.0,21.0,,,,,245.45412919999217,,,,,,,,,,,,,,,,,,,,,,,,,,,,,,,,,,,,,,,,,,,,,,,,,,245.33648279999036,245.33662039999035,245.33662950000144,245.45412919999217,245.45412919999217,245.45412919999217,245.45412919999217,245.45412919999217,245.45412919999217,245.45412919999217,245.45412919999217,245.95456879999256,247.82358860000383,l,C:\Users\lujun\Desktop\01_n_back\data/N_6_n_back_2_2025-01-02_15h32.07.781_verval_resp_a_recorded\recording_verval_resp_a_2025-01-02_15h36.36.516.wav,247.8241049000062,248.02331930000216,248.02331930000216,248.02331930000216,248.02331930000216,248.02331930000216,248.02331930000216,247.91541210000287,757.0,Audio OUT!,1.0,1.0,0.0,target,2/2,sv_t,0.7566919999953825,,0.001,UNKNOWN,0.0,,,,,,,,,,,,,,,,,,,,,,,,,,,,,,,,,,,,N,6,普通话,2025-01-02_15h32.07.781,n_back_2,2023.2.1,59.72192277931209,2025-01-02 15h32.28.701998 +0800,
210:252,2/2,2-,single,233.0,2/2,single,7.0,a,2.0,a,0.0,0.0,0.0,0.0,0.0,1.0,1.0,1.0,0.0,22.0,22.0,22.0,,,,,248.02331930000216,,,,,,,,,,,,,,,,,,,,,,,,,,,,,,,,,,,,,,,,,,,,,,,,,,247.9156709999952,247.915818199981,247.91582719999133,248.02331930000216,248.02331930000216,248.02331930000216,248.02331930000216,248.02331930000216,248.02331930000216,248.02331930000216,248.02331930000216,248.52374750000308,250.4094834999996,a,C:\Users\lujun\Desktop\01_n_back\data/N_6_n_back_2_2025-01-02_15h32.07.781_verval_resp_a_recorded\recording_verval_resp_a_2025-01-02_15h36.39.101.wav,250.41002320000555,250.6104611000046,250.6104611000046,250.6104611000046,250.6104611000046,250.6104611000046,250.6104611000046,250.50505999999584,978.0,Audio OUT!,1.0,0.0,1.0,non-target,2/2,sv_t,0.978334299987182,,0.001,UNKNOWN,0.0,,,,,,,,,,,,,,,,,,,,,,,,,,,,,,,,,,,,N,6,普通话,2025-01-02_15h32.07.781,n_back_2,2023.2.1,59.72192277931209,2025-01-02 15h32.28.701998 +0800,
210:252,2/2,2-,single,234.0,2/2,single,2.0,a,5.0,a,0.0,0.0,0.0,0.0,0.0,1.0,1.0,1.0,0.0,23.0,23.0,23.0,,,,,250.6104611000046,,,,,,,,,,,,,,,,,,,,,,,,,,,,,,,,,,,,,,,,,,,,,,,,,,250.50532229998495,250.5054926000012,250.50550509997996,250.6104611000046,250.6104611000046,250.6104611000046,250.6104611000046,250.6104611000046,250.6104611000046,250.6104611000046,250.6104611000046,251.11245529999724,252.99839719999,a,C:\Users\lujun\Desktop\01_n_back\data/N_6_n_back_2_2025-01-02_15h32.07.781_verval_resp_a_recorded\recording_verval_resp_a_2025-01-02_15h36.41.690.wav,252.9989182999998,253.19525520000025,253.19525520000025,253.19525520000025,253.19525520000025,253.19525520000025,253.19525520000025,253.0895043000055,1446.0,Audio OUT!,1.0,0.0,1.0,non-target,2/2,sv_t,1.4461392000084743,,0.001,UNKNOWN,0.0,,,,,,,,,,,,,,,,,,,,,,,,,,,,,,,,,,,,N,6,普通话,2025-01-02_15h32.07.781,n_back_2,2023.2.1,59.72192277931209,2025-01-02 15h32.28.701998 +0800,
210:252,2/2,2-,single,235.0,2/2,single,7.0,l,1.0,a,0.0,0.0,0.0,0.0,0.0,1.0,1.0,1.0,0.0,24.0,24.0,24.0,,,,,253.19525520000025,,,,,,,,,,,,,,,,,,,,,,,,,,,,,,,,,,,,,,,,,,,,,,,,,,253.08976529998472,253.08990459999768,253.08991340000648,253.19525520000025,253.19525520000025,253.19525520000025,253.19525520000025,253.19525520000025,253.19525520000025,253.19525520000025,253.19525520000025,253.69558379999944,255.58187460000045,l,C:\Users\lujun\Desktop\01_n_back\data/N_6_n_back_2_2025-01-02_15h32.07.781_verval_resp_a_recorded\recording_verval_resp_a_2025-01-02_15h36.44.274.wav,255.58238139998863,255.7830214999849,255.7830214999849,255.7830214999849,255.7830214999849,255.7830214999849,255.7830214999849,255.67731850000564,731.0,Audio OUT!,1.0,1.0,0.0,target,2/2,sv_t,0.7308116000203881,,0.001,UNKNOWN,0.0,,,,,,,,,,,,,,,,,,,,,,,,,,,,,,,,,,,,N,6,普通话,2025-01-02_15h32.07.781,n_back_2,2023.2.1,59.72192277931209,2025-01-02 15h32.28.701998 +0800,
210:252,2/2,2-,single,236.0,2/2,single,2.0,l,5.0,l,0.0,0.0,0.0,0.0,0.0,1.0,1.0,1.0,0.0,25.0,25.0,25.0,,,,,255.7830214999849,,,,,,,,,,,,,,,,,,,,,,,,,,,,,,,,,,,,,,,,,,,,,,,,,,255.6775750999805,255.67771560000256,255.6777242999815,255.7830214999849,255.7830214999849,255.7830214999849,255.7830214999849,255.7830214999849,255.7830214999849,255.7830214999849,255.7830214999849,256.2841328000068,258.169587899989,l,C:\Users\lujun\Desktop\01_n_back\data/N_6_n_back_2_2025-01-02_15h32.07.781_verval_resp_a_recorded\recording_verval_resp_a_2025-01-02_15h36.46.862.wav,258.17008650000207,258.366892799997,258.366892799997,258.366892799997,258.366892799997,258.366892799997,258.366892799997,258.2612106000015,630.0,Audio OUT!,1.0,1.0,0.0,target,2/2,sv_t,0.6297227000177372,,0.001,UNKNOWN,0.0,,,,,,,,,,,,,,,,,,,,,,,,,,,,,,,,,,,,N,6,普通话,2025-01-02_15h32.07.781,n_back_2,2023.2.1,59.72192277931209,2025-01-02 15h32.28.701998 +0800,
210:252,2/2,2-,single,237.0,2/2,single,1.0,a,7.0,a,0.0,0.0,0.0,0.0,0.0,1.0,1.0,1.0,0.0,26.0,26.0,26.0,,,,,258.366892799997,,,,,,,,,,,,,,,,,,,,,,,,,,,,,,,,,,,,,,,,,,,,,,,,,,258.26147149998,258.26161309998133,258.2616221999924,258.366892799997,258.366892799997,258.366892799997,258.366892799997,258.366892799997,258.366892799997,258.366892799997,258.366892799997,258.8674628000008,260.7533070000063,a,C:\Users\lujun\Desktop\01_n_back\data/N_6_n_back_2_2025-01-02_15h32.07.781_verval_resp_a_recorded\recording_verval_resp_a_2025-01-02_15h36.49.446.wav,260.75386729999445,260.9537943000032,260.9537943000032,260.9537943000032,260.9537943000032,260.9537943000032,260.9537943000032,260.8487625999842,561.0,Audio OUT!,1.0,0.0,1.0,non-target,2/2,sv_t,0.5606322000094224,,0.001,UNKNOWN,0.0,,,,,,,,,,,,,,,,,,,,,,,,,,,,,,,,,,,,N,6,普通话,2025-01-02_15h32.07.781,n_back_2,2023.2.1,59.72192277931209,2025-01-02 15h32.28.701998 +0800,
210:252,2/2,2-,single,238.0,2/2,single,5.0,a,5.0,l,0.0,0.0,0.0,0.0,0.0,1.0,1.0,1.0,0.0,27.0,27.0,27.0,,,,,260.9537943000032,,,,,,,,,,,,,,,,,,,,,,,,,,,,,,,,,,,,,,,,,,,,,,,,,,260.84902170000714,260.8491611999925,260.8491697999998,260.9537943000032,260.9537943000032,260.9537943000032,260.9537943000032,260.9537943000032,260.9537943000032,260.9537943000032,260.9537943000032,261.4555517999979,263.3417175000068,a,C:\Users\lujun\Desktop\01_n_back\data/N_6_n_back_2_2025-01-02_15h32.07.781_verval_resp_a_recorded\recording_verval_resp_a_2025-01-02_15h36.52.034.wav,263.3423034999869,263.5388151999796,263.5388151999796,263.5388151999796,263.5388151999796,263.5388151999796,263.5388151999796,263.43296439998085,1166.0,Audio OUT!,1.0,0.0,1.0,non-target,2/2,sv_t,1.1655950999993363,,0.001,UNKNOWN,0.0,,,,,,,,,,,,,,,,,,,,,,,,,,,,,,,,,,,,N,6,普通话,2025-01-02_15h32.07.781,n_back_2,2023.2.1,59.72192277931209,2025-01-02 15h32.28.701998 +0800,
210:252,2/2,2-,single,239.0,2/2,single,1.0,l,4.0,a,0.0,0.0,0.0,0.0,0.0,1.0,1.0,1.0,0.0,28.0,28.0,28.0,,,,,263.5388151999796,,,,,,,,,,,,,,,,,,,,,,,,,,,,,,,,,,,,,,,,,,,,,,,,,,263.4332271000021,263.433366799989,263.4333761000016,263.5388151999796,263.5388151999796,263.5388151999796,263.5388151999796,263.5388151999796,263.5388151999796,263.5388151999796,263.5388151999796,264.03917099998216,265.9252378999954,l,C:\Users\lujun\Desktop\01_n_back\data/N_6_n_back_2_2025-01-02_15h32.07.781_verval_resp_a_recorded\recording_verval_resp_a_2025-01-02_15h36.54.618.wav,265.92579660000047,266.1261777000036,266.1261777000036,266.1261777000036,266.1261777000036,266.1261777000036,266.1261777000036,266.02086869999766,754.0,Audio OUT!,1.0,1.0,0.0,target,2/2,sv_t,0.7540607000119053,,0.001,UNKNOWN,0.0,,,,,,,,,,,,,,,,,,,,,,,,,,,,,,,,,,,,N,6,普通话,2025-01-02_15h32.07.781,n_back_2,2023.2.1,59.72192277931209,2025-01-02 15h32.28.701998 +0800,
210:252,2/2,2-,single,240.0,2/2,single,5.0,l,5.0,l,0.0,0.0,0.0,0.0,0.0,1.0,1.0,1.0,0.0,29.0,29.0,29.0,,,,,266.1261777000036,,,,,,,,,,,,,,,,,,,,,,,,,,,,,,,,,,,,,,,,,,,,,,,,,,266.02112950000446,266.021267300006,266.021276399988,266.1261777000036,266.1261777000036,266.1261777000036,266.1261777000036,266.1261777000036,266.1261777000036,266.1261777000036,266.1261777000036,266.627553600003,268.5133073999896,l,C:\Users\lujun\Desktop\01_n_back\data/N_6_n_back_2_2025-01-02_15h32.07.781_verval_resp_a_recorded\recording_verval_resp_a_2025-01-02_15h36.57.206.wav,268.5138059000019,268.71143900000607,268.71143900000607,268.71143900000607,268.71143900000607,268.71143900000607,268.71143900000607,268.6051284999994,608.0,Audio OUT!,1.0,1.0,0.0,target,2/2,sv_t,0.6084213999856729,,0.001,UNKNOWN,0.0,,,,,,,,,,,,,,,,,,,,,,,,,,,,,,,,,,,,N,6,普通话,2025-01-02_15h32.07.781,n_back_2,2023.2.1,59.72192277931209,2025-01-02 15h32.28.701998 +0800,
210:252,2/2,2-,single,241.0,2/2,single,7.0,a,3.0,a,0.0,0.0,0.0,0.0,0.0,1.0,1.0,1.0,0.0,30.0,30.0,30.0,,,,,268.71143900000607,,,,,,,,,,,,,,,,,,,,,,,,,,,,,,,,,,,,,,,,,,,,,,,,,,268.60539149999386,268.6055339000013,268.60554309998406,268.71143900000607,268.71143900000607,268.71143900000607,268.71143900000607,268.71143900000607,268.71143900000607,268.71143900000607,268.71143900000607,269.2132799999963,271.0993262999982,a,C:\Users\lujun\Desktop\01_n_back\data/N_6_n_back_2_2025-01-02_15h32.07.781_verval_resp_a_recorded\recording_verval_resp_a_2025-01-02_15h36.59.791.wav,271.09983200000715,271.2991425000073,271.2991425000073,271.2991425000073,271.2991425000073,271.2991425000073,271.2991425000073,271.1949640999956,650.0,Audio OUT!,1.0,0.0,1.0,non-target,2/2,sv_t,0.6500006999995094,,0.001,UNKNOWN,0.0,,,,,,,,,,,,,,,,,,,,,,,,,,,,,,,,,,,,N,6,普通话,2025-01-02_15h32.07.781,n_back_2,2023.2.1,59.72192277931209,2025-01-02 15h32.28.701998 +0800,
210:252,2/2,2-,single,242.0,2/2,single,1.0,a,1.0,a,0.0,0.0,0.0,0.0,0.0,1.0,1.0,1.0,0.0,31.0,31.0,31.0,,,,,271.2991425000073,,,,,,,,,,,,,,,,,,,,,,,,,,,,,,,,,,,,,,,,,,,,,,,,,,271.1952834999829,271.19543940000585,271.1954487999901,271.2991425000073,271.2991425000073,271.2991425000073,271.2991425000073,271.2991425000073,271.2991425000073,271.2991425000073,271.2991425000073,271.79919180000434,273.6851623999828,a,C:\Users\lujun\Desktop\01_n_back\data/N_6_n_back_2_2025-01-02_15h32.07.781_verval_resp_a_recorded\recording_verval_resp_a_2025-01-02_15h37.02.378.wav,273.68566210000427,273.8823612999986,273.8823612999986,273.8823612999986,273.8823612999986,273.8823612999986,273.8823612999986,273.77651339999284,752.0,Audio OUT!,1.0,0.0,1.0,non-target,2/2,sv_t,0.7520136999955866,,0.001,UNKNOWN,0.0,,,,,,,,,,,,,,,,,,,,,,,,,,,,,,,,,,,,N,6,普通话,2025-01-02_15h32.07.781,n_back_2,2023.2.1,59.72192277931209,2025-01-02 15h32.28.701998 +0800,
210:252,2/2,2-,single,243.0,2/2,single,7.0,l,8.0,a,0.0,0.0,0.0,0.0,0.0,1.0,1.0,1.0,0.0,32.0,32.0,32.0,,,,,273.8823612999986,,,,,,,,,,,,,,,,,,,,,,,,,,,,,,,,,,,,,,,,,,,,,,,,,,273.776772799989,273.7769139999873,273.7769227999961,273.8823612999986,273.8823612999986,273.8823612999986,273.8823612999986,273.8823612999986,273.8823612999986,273.8823612999986,273.8823612999986,274.38278859999264,276.2686277999892,l,C:\Users\lujun\Desktop\01_n_back\data/N_6_n_back_2_2025-01-02_15h32.07.781_verval_resp_a_recorded\recording_verval_resp_a_2025-01-02_15h37.04.961.wav,276.2691308000067,276.469474499987,276.469474499987,276.469474499987,276.469474499987,276.469474499987,276.469474499987,276.3642079999845,702.0,Audio OUT!,1.0,1.0,0.0,target,2/2,sv_t,0.7021239000023343,,0.001,UNKNOWN,0.0,,,,,,,,,,,,,,,,,,,,,,,,,,,,,,,,,,,,N,6,普通话,2025-01-02_15h32.07.781,n_back_2,2023.2.1,59.72192277931209,2025-01-02 15h32.28.701998 +0800,
210:252,2/2,2-,single,244.0,2/2,single,1.0,l,2.0,a,0.0,0.0,0.0,0.0,0.0,1.0,1.0,1.0,0.0,33.0,33.0,33.0,,,,,276.469474499987,,,,,,,,,,,,,,,,,,,,,,,,,,,,,,,,,,,,,,,,,,,,,,,,,,276.36446710000746,276.3646055999852,276.3646141999925,276.469474499987,276.469474499987,276.469474499987,276.469474499987,276.469474499987,276.469474499987,276.469474499987,276.469474499987,276.97106700000586,278.8572326999856,l,C:\Users\lujun\Desktop\01_n_back\data/N_6_n_back_2_2025-01-02_15h32.07.781_verval_resp_a_recorded\recording_verval_resp_a_2025-01-02_15h37.07.550.wav,278.8578777000075,279.0550023999822,279.0550023999822,279.0550023999822,279.0550023999822,279.0550023999822,279.0550023999822,278.9488650999847,1098.0,Audio OUT!,1.0,1.0,0.0,target,2/2,sv_t,1.097835499997018,,0.001,UNKNOWN,0.0,,,,,,,,,,,,,,,,,,,,,,,,,,,,,,,,,,,,N,6,普通话,2025-01-02_15h32.07.781,n_back_2,2023.2.1,59.72192277931209,2025-01-02 15h32.28.701998 +0800,
210:252,2/2,2-,single,245.0,2/2,single,4.0,a,8.0,l,0.0,0.0,0.0,0.0,0.0,1.0,1.0,1.0,0.0,34.0,34.0,34.0,,,,,279.0550023999822,,,,,,,,,,,,,,,,,,,,,,,,,,,,,,,,,,,,,,,,,,,,,,,,,,278.9491221999924,278.9492663999845,278.9492754999956,279.0550023999822,279.0550023999822,279.0550023999822,279.0550023999822,279.0550023999822,279.0550023999822,279.0550023999822,279.0550023999822,279.5569778000063,281.4431043000077,a,C:\Users\lujun\Desktop\01_n_back\data/N_6_n_back_2_2025-01-02_15h32.07.781_verval_resp_a_recorded\recording_verval_resp_a_2025-01-02_15h37.10.136.wav,281.4436390000046,281.6567475000047,281.6567475000047,281.6567475000047,281.6567475000047,281.6567475000047,281.6567475000047,281.53853510000044,690.0,Audio OUT!,1.0,0.0,1.0,non-target,2/2,sv_t,0.6896416999807116,,0.001,UNKNOWN,0.0,,,,,,,,,,,,,,,,,,,,,,,,,,,,,,,,,,,,N,6,普通话,2025-01-02_15h32.07.781,n_back_2,2023.2.1,59.72192277931209,2025-01-02 15h32.28.701998 +0800,
210:252,2/2,2-,single,246.0,2/2,single,8.0,a,2.0,l,0.0,0.0,0.0,0.0,0.0,1.0,1.0,1.0,0.0,35.0,35.0,35.0,,,,,281.6567475000047,,,,,,,,,,,,,,,,,,,,,,,,,,,,,,,,,,,,,,,,,,,,,,,,,,281.5387952000019,281.53893509999034,281.53894460000447,281.6567475000047,281.6567475000047,281.6567475000047,281.6567475000047,281.6567475000047,281.6567475000047,281.6567475000047,281.6567475000047,282.1572623999964,284.02647019998403,a,C:\Users\lujun\Desktop\01_n_back\data/N_6_n_back_2_2025-01-02_15h32.07.781_verval_resp_a_recorded\recording_verval_resp_a_2025-01-02_15h37.12.718.wav,284.02697619999526,284.226067599986,284.226067599986,284.226067599986,284.226067599986,284.226067599986,284.226067599986,284.1179594999994,1267.0,Audio OUT!,1.0,0.0,1.0,non-target,2/2,sv_t,1.267160999996122,,0.001,UNKNOWN,0.0,,,,,,,,,,,,,,,,,,,,,,,,,,,,,,,,,,,,N,6,普通话,2025-01-02_15h32.07.781,n_back_2,2023.2.1,59.72192277931209,2025-01-02 15h32.28.701998 +0800,
210:252,2/2,2-,single,247.0,2/2,single,4.0,l,8.0,l,0.0,0.0,0.0,0.0,0.0,1.0,1.0,1.0,0.0,36.0,36.0,36.0,,,,,284.226067599986,,,,,,,,,,,,,,,,,,,,,,,,,,,,,,,,,,,,,,,,,,,,,,,,,,284.11827869998524,284.11842359998263,284.1184327999945,284.226067599986,284.226067599986,284.226067599986,284.226067599986,284.226067599986,284.226067599986,284.226067599986,284.226067599986,284.7264232999878,286.61243069998454,l,C:\Users\lujun\Desktop\01_n_back\data/N_6_n_back_2_2025-01-02_15h32.07.781_verval_resp_a_recorded\recording_verval_resp_a_2025-01-02_15h37.15.305.wav,286.61294089999865,286.81334429999697,286.81334429999697,286.81334429999697,286.81334429999697,286.81334429999697,286.81334429999697,286.70789039999363,822.0,Audio OUT!,1.0,1.0,0.0,target,2/2,sv_t,0.8222699999751057,,0.001,UNKNOWN,0.0,,,,,,,,,,,,,,,,,,,,,,,,,,,,,,,,,,,,N,6,普通话,2025-01-02_15h32.07.781,n_back_2,2023.2.1,59.72192277931209,2025-01-02 15h32.28.701998 +0800,
210:252,2/2,2-,single,248.0,2/2,single,1.0,a,7.0,a,0.0,0.0,0.0,0.0,0.0,1.0,1.0,1.0,0.0,37.0,37.0,37.0,,,,,286.81334429999697,,,,,,,,,,,,,,,,,,,,,,,,,,,,,,,,,,,,,,,,,,,,,,,,,,286.70815940000466,286.7083028999914,286.7083120000025,286.81334429999697,286.81334429999697,286.81334429999697,286.81334429999697,286.81334429999697,286.81334429999697,286.81334429999697,286.81334429999697,287.3147340999858,289.20096109999577,a,C:\Users\lujun\Desktop\01_n_back\data/N_6_n_back_2_2025-01-02_15h32.07.781_verval_resp_a_recorded\recording_verval_resp_a_2025-01-02_15h37.17.893.wav,289.2014959999942,289.3982067999896,289.3982067999896,289.3982067999896,289.3982067999896,289.3982067999896,289.3982067999896,289.2926507999946,924.0,Audio OUT!,1.0,0.0,1.0,non-target,2/2,sv_t,0.923600299982354,,0.001,UNKNOWN,0.0,,,,,,,,,,,,,,,,,,,,,,,,,,,,,,,,,,,,N,6,普通话,2025-01-02_15h32.07.781,n_back_2,2023.2.1,59.72192277931209,2025-01-02 15h32.28.701998 +0800,
210:252,2/2,2-,single,249.0,2/2,single,5.0,a,4.0,a,0.0,0.0,0.0,0.0,0.0,1.0,1.0,1.0,0.0,38.0,38.0,38.0,,,,,289.3982067999896,,,,,,,,,,,,,,,,,,,,,,,,,,,,,,,,,,,,,,,,,,,,,,,,,,289.2929079000023,289.29304779999075,289.2930564999988,289.3982067999896,289.3982067999896,289.3982067999896,289.3982067999896,289.3982067999896,289.3982067999896,289.3982067999896,289.3982067999896,289.90078999998514,291.7867305999971,a,C:\Users\lujun\Desktop\01_n_back\data/N_6_n_back_2_2025-01-02_15h32.07.781_verval_resp_a_recorded\recording_verval_resp_a_2025-01-02_15h37.20.479.wav,291.78726529999403,292.00038230000064,292.00038230000064,292.00038230000064,292.00038230000064,292.00038230000064,292.00038230000064,291.8824742999859,1283.0,Audio OUT!,1.0,0.0,1.0,non-target,2/2,sv_t,1.2833891999907792,,0.001,UNKNOWN,0.0,,,,,,,,,,,,,,,,,,,,,,,,,,,,,,,,,,,,N,6,普通话,2025-01-02_15h32.07.781,n_back_2,2023.2.1,59.72192277931209,2025-01-02 15h32.28.701998 +0800,
210:252,2/2,2-,single,250.0,2/2,single,8.0,a,7.0,l,0.0,0.0,0.0,0.0,0.0,1.0,1.0,1.0,0.0,39.0,39.0,39.0,,,,,292.00038230000064,,,,,,,,,,,,,,,,,,,,,,,,,,,,,,,,,,,,,,,,,,,,,,,,,,291.8827373999811,291.88288689998444,291.8828958999948,292.00038230000064,292.00038230000064,292.00038230000064,292.00038230000064,292.00038230000064,292.00038230000064,292.00038230000064,292.00038230000064,292.50095899999724,294.37013480000314,l,C:\Users\lujun\Desktop\01_n_back\data/N_6_n_back_2_2025-01-02_15h32.07.781_verval_resp_a_recorded\recording_verval_resp_a_2025-01-02_15h37.23.062.wav,294.37064419998205,294.5696582999953,294.5696582999953,294.5696582999953,294.5696582999953,294.5696582999953,294.5696582999953,294.46231380000245,1882.0,Audio OUT!,0.0,0.0,0.0,non-target,2/2,sv_t,1.8819809000124224,,0.001,UNKNOWN,0.0,,,,,,,,,,,,,,,,,,,,,,,,,,,,,,,,,,,,N,6,普通话,2025-01-02_15h32.07.781,n_back_2,2023.2.1,59.72192277931209,2025-01-02 15h32.28.701998 +0800,
210:252,2/2,2-,single,251.0,2/2,single,3.0,a,4.0,l,0.0,0.0,0.0,0.0,0.0,1.0,1.0,1.0,0.0,40.0,40.0,40.0,,,,,294.5696582999953,,,,,,,,,,,,,,,,,,,,,,,,,,,,,,,,,,,,,,,,,,,,,,,,,,294.46257539998624,294.4627189000021,294.46272779998253,294.5696582999953,294.5696582999953,294.5696582999953,294.5696582999953,294.5696582999953,294.5696582999953,294.5696582999953,294.5696582999953,295.0701419999823,296.95601920000627,a,C:\Users\lujun\Desktop\01_n_back\data/N_6_n_back_2_2025-01-02_15h32.07.781_verval_resp_a_recorded\recording_verval_resp_a_2025-01-02_15h37.25.648.wav,296.95659149999847,297.1566108999832,297.1566108999832,297.1566108999832,297.1566108999832,297.1566108999832,297.1566108999832,297.0512639999797,1042.0,Audio OUT!,1.0,0.0,1.0,non-target,2/2,sv_t,1.0424539000086952,,0.001,UNKNOWN,0.0,,,,,,,,,,,,,,,,,,,,,,,,,,,,,,,,,,,,N,6,普通话,2025-01-02_15h32.07.781,n_back_2,2023.2.1,59.72192277931209,2025-01-02 15h32.28.701998 +0800,
210:252,2/2,2-,single,252.0,2/2,single,6.0,a,2.0,a,0.0,0.0,0.0,0.0,0.0,1.0,1.0,1.0,0.0,41.0,41.0,41.0,,,,,297.1566108999832,,,,,,,,,,,,,,,,,,,,,,,,,,,,,,,,,,,,,,,,,,,,,,,,,,297.0515250999888,297.0516908999998,297.0517040999839,297.1566108999832,297.1566108999832,297.1566108999832,297.1566108999832,297.1566108999832,297.1566108999832,297.1566108999832,297.1566108999832,297.65841639999417,299.544118299993,a,C:\Users\lujun\Desktop\01_n_back\data/N_6_n_back_2_2025-01-02_15h32.07.781_verval_resp_a_recorded\recording_verval_resp_a_2025-01-02_15h37.28.236.wav,299.54469149999204,299.64131129998714,299.64131129998714,299.64131129998714,299.64131129998714,299.64131129998714,299.64131129998714,299.6358069999842,974.0,Audio OUT!,1.0,0.0,1.0,non-target,2/2,sv_t,0.974155099975178,,0.001,UNKNOWN,0.0,,,,,,,,,,,,,,,,,,,,,,,,,,,,,,,,,,,,N,6,普通话,2025-01-02_15h32.07.781,n_back_2,2023.2.1,59.72192277931209,2025-01-02 15h32.28.701998 +0800,
210:252,2/2,2-,single,,,,,,,,0.0,0.0,0.0,0.0,0.0,1.0,1.0,1.0,,,,,,,,,,,,,,,,,,,,,,,,,,,,,,,,,,,,,,,,,,,,,,,,,,,,,,,,,,,,,,,,,,,,,,,,,,,,,,,,,,,,,,,,,,,,,,,299.6359119999979,299.64131129998714,299.64131129998714,299.64131129998714,301.6280628999812,,,,,,,,,,,,,,,,,,,,,,,,,,,,,,,N,6,普通话,2025-01-02_15h32.07.781,n_back_2,2023.2.1,59.72192277931209,2025-01-02 15h32.28.701998 +0800,
,,,,,,,,,,,0.0,0.0,0.0,0.0,,,,,,,,,0.0,0.0,0.0,0.0,301.7267099999881,,,,,,,,,,,,,,,,,,,,,,,,,,,,,,,,,,,,,,,,,,,,,,,,,,,,,,,,,,,,,,,,,,,,,,,,,,,,,,,,,,,,,,,,,,,,301.6287256999931,301.7267099999881,0.0181583999947179,301.7267099999881,309.03536310000345,1.0,"1. How much mental and perceptual activity was required (e.g., thinking, deciding, calculating, remembering, looking, searching, etc.)? ",slider,,,,,,,,,,,,,,,,,,,,,,N,6,普通话,2025-01-02_15h32.07.781,n_back_2,2023.2.1,59.72192277931209,2025-01-02 15h32.28.701998 +0800,
,,,,,,,,,,,0.0,0.0,0.0,0.0,,,,,,,,,0.0,0.0,0.0,0.0,,,,,,,,,,,,,,,,,,,,,,,,,,,,,,,,,,,,,,,,,,,,,,,,,,,,,,,,,,,,,,,,,,,,,,,,,,,,,,,,,,,,,,,,,,,,,,,,,,2.0,"2. How much physical activity was required (e.g. pushing, pulling, turning, controlling, activating. etc.)? ",slider,,,,,,,,,,,,,,,,,,,,,,N,6,普通话,2025-01-02_15h32.07.781,n_back_2,2023.2.1,59.72192277931209,2025-01-02 15h32.28.701998 +0800,
,,,,,,,,,,,0.0,0.0,0.0,0.0,,,,,,,,,0.0,0.0,0.0,0.0,,,,,,,,,,,,,,,,,,,,,,,,,,,,,,,,,,,,,,,,,,,,,,,,,,,,,,,,,,,,,,,,,,,,,,,,,,,,,,,,,,,,,,,,,,,,,,,,,,3.0,3. How much time pressure did you feel due to the rate or pace at which the tasks or task elements occurred?,slider,,,,,,,,,,,,,,,,,,,,,,N,6,普通话,2025-01-02_15h32.07.781,n_back_2,2023.2.1,59.72192277931209,2025-01-02 15h32.28.701998 +0800,
,,,,,,,,,,,0.0,0.0,0.0,0.0,,,,,,,,,0.0,0.0,0.0,0.0,,,,,,,,,,,,,,,,,,,,,,,,,,,,,,,,,,,,,,,,,,,,,,,,,,,,,,,,,,,,,,,,,,,,,,,,,,,,,,,,,,,,,,,,,,,,,,,,,,4.0,4. How successful do you think you were in accomplishing the goals of the task set by the experimenter (or yourself)? ,slider,,,,,,,,,,,,,,,,,,,,,,N,6,普通话,2025-01-02_15h32.07.781,n_back_2,2023.2.1,59.72192277931209,2025-01-02 15h32.28.701998 +0800,
,,,,,,,,,,,0.0,0.0,0.0,0.0,,,,,,,,,0.0,0.0,0.0,0.0,,,,,,,,,,,,,,,,,,,,,,,,,,,,,,,,,,,,,,,,,,,,,,,,,,,,,,,,,,,,,,,,,,,,,,,,,,,,,,,,,,,,,,,,,,,,,,,,,,5.0,5. How hard did you have to work (mentally and physically) to accomplish your level of performance?,slider,,,,,,,,,,,,,,,,,,,,,,N,6,普通话,2025-01-02_15h32.07.781,n_back_2,2023.2.1,59.72192277931209,2025-01-02 15h32.28.701998 +0800,
,,,,,,,,,,,0.0,0.0,0.0,0.0,,,,,,,,,0.0,0.0,0.0,0.0,,,,,,,,,,,,,,,,,,,,,,,,,,,,,,,,,,,,,,,,,,,,,,,,,,,,,,,,,,,,,,,,,,,,,,,,,,,,,,,,,,,,,,,,,,,,,,,,,,6.0,"6. How insecure, discouraged, irritated, stressed and annoyed did you feel during the task?",slider,,,,,,,,,,,,,,,,,,,,,,N,6,普通话,2025-01-02_15h32.07.781,n_back_2,2023.2.1,59.72192277931209,2025-01-02 15h32.28.701998 +0800,
,,,,,,,,,,,0.0,0.0,0.0,0.0,,,,,,,,,0.0,0.0,0.0,0.0,,,,,,,,,,,,,,,,,,,,,,,,,,,,,,,,,,,,,,,,,,,,,,,,,,,,,,,,,,,,,,,,,,,,,,,,,,,,,,,,,,,,,,,,,,,,,,,,,,,,,,,,,[0.010185185185185186],[0.019444444444444445],[1],[0],[0],[7.388503000023775],['scale_sub_box'],,,,,,,,,,,N,6,普通话,2025-01-02_15h32.07.781,n_back_2,2023.2.1,59.72192277931209,2025-01-02 15h32.28.701998 +0800,
,,,,,,,,,,,0.0,0.0,0.0,0.0,,,,,,,,,1.0,0.0,1.0,0.0,309.1178138999967,,,,,,,,,,,,,,,,,,,,,,,,,,,,,,,,,,,,,,,,,,,,,,,,,,,,,,,,,,,,,,,,,,,,,,,,,,,,,,,,,,,,,,,,,,,,309.036454599991,309.1178138999967,0.0009492999815847,309.1178138999967,310.786970199988,1.0,"1. How much mental and perceptual activity was required (e.g., thinking, deciding, calculating, remembering, looking, searching, etc.)? ",slider,,,0.4634947606910225,7.487071599985938,,,,,,,,,,,,,,,,,,N,6,普通话,2025-01-02_15h32.07.781,n_back_2,2023.2.1,59.72192277931209,2025-01-02 15h32.28.701998 +0800,
,,,,,,,,,,,0.0,0.0,0.0,0.0,,,,,,,,,1.0,0.0,1.0,0.0,,,,,,,,,,,,,,,,,,,,,,,,,,,,,,,,,,,,,,,,,,,,,,,,,,,,,,,,,,,,,,,,,,,,,,,,,,,,,,,,,,,,,,,,,,,,,,,,,,2.0,"2. How much physical activity was required (e.g. pushing, pulling, turning, controlling, activating. etc.)? ",slider,,,,,,,,,,,,,,,,,,,,,,N,6,普通话,2025-01-02_15h32.07.781,n_back_2,2023.2.1,59.72192277931209,2025-01-02 15h32.28.701998 +0800,
,,,,,,,,,,,0.0,0.0,0.0,0.0,,,,,,,,,1.0,0.0,1.0,0.0,,,,,,,,,,,,,,,,,,,,,,,,,,,,,,,,,,,,,,,,,,,,,,,,,,,,,,,,,,,,,,,,,,,,,,,,,,,,,,,,,,,,,,,,,,,,,,,,,,3.0,3. How much time pressure did you feel due to the rate or pace at which the tasks or task elements occurred?,slider,,,,,,,,,,,,,,,,,,,,,,N,6,普通话,2025-01-02_15h32.07.781,n_back_2,2023.2.1,59.72192277931209,2025-01-02 15h32.28.701998 +0800,
,,,,,,,,,,,0.0,0.0,0.0,0.0,,,,,,,,,1.0,0.0,1.0,0.0,,,,,,,,,,,,,,,,,,,,,,,,,,,,,,,,,,,,,,,,,,,,,,,,,,,,,,,,,,,,,,,,,,,,,,,,,,,,,,,,,,,,,,,,,,,,,,,,,,4.0,4. How successful do you think you were in accomplishing the goals of the task set by the experimenter (or yourself)? ,slider,,,,,,,,,,,,,,,,,,,,,,N,6,普通话,2025-01-02_15h32.07.781,n_back_2,2023.2.1,59.72192277931209,2025-01-02 15h32.28.701998 +0800,
,,,,,,,,,,,0.0,0.0,0.0,0.0,,,,,,,,,1.0,0.0,1.0,0.0,,,,,,,,,,,,,,,,,,,,,,,,,,,,,,,,,,,,,,,,,,,,,,,,,,,,,,,,,,,,,,,,,,,,,,,,,,,,,,,,,,,,,,,,,,,,,,,,,,5.0,5. How hard did you have to work (mentally and physically) to accomplish your level of performance?,slider,,,,,,,,,,,,,,,,,,,,,,N,6,普通话,2025-01-02_15h32.07.781,n_back_2,2023.2.1,59.72192277931209,2025-01-02 15h32.28.701998 +0800,
,,,,,,,,,,,0.0,0.0,0.0,0.0,,,,,,,,,1.0,0.0,1.0,0.0,,,,,,,,,,,,,,,,,,,,,,,,,,,,,,,,,,,,,,,,,,,,,,,,,,,,,,,,,,,,,,,,,,,,,,,,,,,,,,,,,,,,,,,,,,,,,,,,,,6.0,"6. How insecure, discouraged, irritated, stressed and annoyed did you feel during the task?",slider,,,,,,,,,,,,,,,,,,,,,,N,6,普通话,2025-01-02_15h32.07.781,n_back_2,2023.2.1,59.72192277931209,2025-01-02 15h32.28.701998 +0800,
,,,,,,,,,,,0.0,0.0,0.0,0.0,,,,,,,,,1.0,0.0,1.0,0.0,,,,,,,,,,,,,,,,,,,,,,,,,,,,,,,,,,,,,,,,,,,,,,,,,,,,,,,,,,,,,,,,,,,,,,,,,,,,,,,,,,,,,,,,,,,,,,,,,,,,,,,,,[0.03796296296296296],[0.019444444444444445],[1],[0],[0],[1.7492745000054128],['scale_sub_box'],,,,,,,,,,,N,6,普通话,2025-01-02_15h32.07.781,n_back_2,2023.2.1,59.72192277931209,2025-01-02 15h32.28.701998 +0800,
,,,,,,,,,,,0.0,0.0,0.0,0.0,,,,,,,,,2.0,0.0,2.0,0.0,310.8692653999897,,,,,,,,,,,,,,,,,,,,,,,,,,,,,,,,,,,,,,,,,,,,,,,,,,,,,,,,,,,,,,,,,,,,,,,,,,,,,,,,,,,,,,,,,,,,310.7877641999803,310.8692653999897,0.0009699999936856,310.8692653999897,342.8183641000069,1.0,"1. How much mental and perceptual activity was required (e.g., thinking, deciding, calculating, remembering, looking, searching, etc.)? ",slider,,,0.861753044463325,12.158433299977332,,,,,,,,,,,,,,,,,,N,6,普通话,2025-01-02_15h32.07.781,n_back_2,2023.2.1,59.72192277931209,2025-01-02 15h32.28.701998 +0800,
,,,,,,,,,,,0.0,0.0,0.0,0.0,,,,,,,,,2.0,0.0,2.0,0.0,,,,,,,,,,,,,,,,,,,,,,,,,,,,,,,,,,,,,,,,,,,,,,,,,,,,,,,,,,,,,,,,,,,,,,,,,,,,,,,,,,,,,,,,,,,,,,,,,,2.0,"2. How much physical activity was required (e.g. pushing, pulling, turning, controlling, activating. etc.)? ",slider,,,0.3803030303030305,18.59423539999989,,,,,,,,,,,,,,,,,,N,6,普通话,2025-01-02_15h32.07.781,n_back_2,2023.2.1,59.72192277931209,2025-01-02 15h32.28.701998 +0800,
,,,,,,,,,,,0.0,0.0,0.0,0.0,,,,,,,,,2.0,0.0,2.0,0.0,,,,,,,,,,,,,,,,,,,,,,,,,,,,,,,,,,,,,,,,,,,,,,,,,,,,,,,,,,,,,,,,,,,,,,,,,,,,,,,,,,,,,,,,,,,,,,,,,,3.0,3. How much time pressure did you feel due to the rate or pace at which the tasks or task elements occurred?,slider,,,0.5696969696969698,39.21103750000475,,,,,,,,,,,,,,,,,,N,6,普通话,2025-01-02_15h32.07.781,n_back_2,2023.2.1,59.72192277931209,2025-01-02 15h32.28.701998 +0800,
,,,,,,,,,,,0.0,0.0,0.0,0.0,,,,,,,,,2.0,0.0,2.0,0.0,,,,,,,,,,,,,,,,,,,,,,,,,,,,,,,,,,,,,,,,,,,,,,,,,,,,,,,,,,,,,,,,,,,,,,,,,,,,,,,,,,,,,,,,,,,,,,,,,,4.0,4. How successful do you think you were in accomplishing the goals of the task set by the experimenter (or yourself)? ,slider,,,,,,,,,,,,,,,,,,,,,,N,6,普通话,2025-01-02_15h32.07.781,n_back_2,2023.2.1,59.72192277931209,2025-01-02 15h32.28.701998 +0800,
,,,,,,,,,,,0.0,0.0,0.0,0.0,,,,,,,,,2.0,0.0,2.0,0.0,,,,,,,,,,,,,,,,,,,,,,,,,,,,,,,,,,,,,,,,,,,,,,,,,,,,,,,,,,,,,,,,,,,,,,,,,,,,,,,,,,,,,,,,,,,,,,,,,,5.0,5. How hard did you have to work (mentally and physically) to accomplish your level of performance?,slider,,,,,,,,,,,,,,,,,,,,,,N,6,普通话,2025-01-02_15h32.07.781,n_back_2,2023.2.1,59.72192277931209,2025-01-02 15h32.28.701998 +0800,
,,,,,,,,,,,0.0,0.0,0.0,0.0,,,,,,,,,2.0,0.0,2.0,0.0,,,,,,,,,,,,,,,,,,,,,,,,,,,,,,,,,,,,,,,,,,,,,,,,,,,,,,,,,,,,,,,,,,,,,,,,,,,,,,,,,,,,,,,,,,,,,,,,,,6.0,"6. How insecure, discouraged, irritated, stressed and annoyed did you feel during the task?",slider,,,,,,,,,,,,,,,,,,,,,,N,6,普通话,2025-01-02_15h32.07.781,n_back_2,2023.2.1,59.72192277931209,2025-01-02 15h32.28.701998 +0800,
,,,,,,,,,,,0.0,0.0,0.0,0.0,,,,,,,,,2.0,0.0,2.0,0.0,,,,,,,,,,,,,,,,,,,,,,,,,,,,,,,,,,,,,,,,,,,,,,,,,,,,,,,,,,,,,,,,,,,,,,,,,,,,,,,,,,,,,,,,,,,,,,,,,,,,,,,,,"[0.2601851851851852, 0.42685185185185187, -0.016666666666666666, -0.07685185185185185, 0.12129629629629629, 0.06666666666666667]","[0.018518518518518517, 0.010185185185185186, -0.1925925925925926, -0.18796296296296297, -0.2518518518518518, -0.000925925925925926]","[1, 1, 1, 1, 1, 1]","[0, 0, 0, 0, 0, 0]","[0, 0, 0, 0, 0, 0]","[1.165524700016249, 2.9171444000094198, 8.840068799996516, 9.423778299998958, 30.027541100018425, 32.02933300001314]",['scale_sub_box'],,,,,,,,,,,N,6,普通话,2025-01-02_15h32.07.781,n_back_2,2023.2.1,59.72192277931209,2025-01-02 15h32.28.701998 +0800,
,,,,,,,,,,,0.0,0.0,0.0,0.0,,,,,,,,,3.0,0.0,3.0,0.0,342.90105779998703,,,,,,,,,,,,,,,,,,,,,,,,,,,,,,,,,,,,,,,,,,,,,,,,,,,,,,,,,,,,,,,,,,,,,,,,,,,,,,,,,,,,,,,,,,,,342.8191236999992,342.90105779998703,0.0008528000034857,342.90105779998703,366.5921432999894,1.0,"1. How much mental and perceptual activity was required (e.g., thinking, deciding, calculating, remembering, looking, searching, etc.)? ",slider,,,0.861753044463325,12.158433299977332,,,,,,,,362.003419399989,,,,,,,,,,N,6,普通话,2025-01-02_15h32.07.781,n_back_2,2023.2.1,59.72192277931209,2025-01-02 15h32.28.701998 +0800,
,,,,,,,,,,,0.0,0.0,0.0,0.0,,,,,,,,,3.0,0.0,3.0,0.0,,,,,,,,,,,,,,,,,,,,,,,,,,,,,,,,,,,,,,,,,,,,,,,,,,,,,,,,,,,,,,,,,,,,,,,,,,,,,,,,,,,,,,,,,,,,,,,,,,2.0,"2. How much physical activity was required (e.g. pushing, pulling, turning, controlling, activating. etc.)? ",slider,,,0.3803030303030305,18.59423539999989,,,,,,,,,,,,,,,,,,N,6,普通话,2025-01-02_15h32.07.781,n_back_2,2023.2.1,59.72192277931209,2025-01-02 15h32.28.701998 +0800,
,,,,,,,,,,,0.0,0.0,0.0,0.0,,,,,,,,,3.0,0.0,3.0,0.0,,,,,,,,,,,,,,,,,,,,,,,,,,,,,,,,,,,,,,,,,,,,,,,,,,,,,,,,,,,,,,,,,,,,,,,,,,,,,,,,,,,,,,,,,,,,,,,,,,3.0,3. How much time pressure did you feel due to the rate or pace at which the tasks or task elements occurred?,slider,,,0.5174808836023791,41.21184269999503,,,,,,,,,,,,,,,,,,N,6,普通话,2025-01-02_15h32.07.781,n_back_2,2023.2.1,59.72192277931209,2025-01-02 15h32.28.701998 +0800,
,,,,,,,,,,,0.0,0.0,0.0,0.0,,,,,,,,,3.0,0.0,3.0,0.0,,,,,,,,,,,,,,,,,,,,,,,,,,,,,,,,,,,,,,,,,,,,,,,,,,,,,,,,,,,,,,,,,,,,,,,,,,,,,,,,,,,,,,,,,,,,,,,,,,4.0,4. How successful do you think you were in accomplishing the goals of the task set by the experimenter (or yourself)? ,slider,,,0.6192580005664119,27.74546000000555,,,,,,,,,,,,,,,,,,N,6,普通话,2025-01-02_15h32.07.781,n_back_2,2023.2.1,59.72192277931209,2025-01-02 15h32.28.701998 +0800,
,,,,,,,,,,,0.0,0.0,0.0,0.0,,,,,,,,,3.0,0.0,3.0,0.0,,,,,,,,,,,,,,,,,,,,,,,,,,,,,,,,,,,,,,,,,,,,,,,,,,,,,,,,,,,,,,,,,,,,,,,,,,,,,,,,,,,,,,,,,,,,,,,,,,5.0,5. How hard did you have to work (mentally and physically) to accomplish your level of performance?,slider,,,0.4502194845652791,12.57012869999744,,,,,,,,,,,,,,,,,,N,6,普通话,2025-01-02_15h32.07.781,n_back_2,2023.2.1,59.72192277931209,2025-01-02 15h32.28.701998 +0800,
,,,,,,,,,,,0.0,0.0,0.0,0.0,,,,,,,,,3.0,0.0,3.0,0.0,,,,,,,,,,,,,,,,,,,,,,,,,,,,,,,,,,,,,,,,,,,,,,,,,,,,,,,,,,,,,,,,,,,,,,,,,,,,,,,,,,,,,,,,,,,,,,,,,,6.0,"6. How insecure, discouraged, irritated, stressed and annoyed did you feel during the task?",slider,,,0.2723307844803173,15.497806300001685,,,,,,,,,,,,,,,,,,N,6,普通话,2025-01-02_15h32.07.781,n_back_2,2023.2.1,59.72192277931209,2025-01-02 15h32.28.701998 +0800,
,,,,,,,,,,,0.0,0.0,0.0,0.0,,,,,,,,,3.0,0.0,3.0,0.0,,,,,,,,,,,,,,,,,,,,,,,,,,,,,,,,,,,,,,,,,,,,,,,,,,,,,,,,,,,,,,,,,,,,,,,,,,,,,,,,,,,,,,,,,,,,,,,,,,,,,,,,,"[0.17314814814814813, -0.003703703703703704, -0.2462962962962963, -0.1648148148148148, -0.18981481481481483, 0.6240740740740741]","[-0.30648148148148147, -0.25462962962962965, -0.31666666666666665, -0.3074074074074074, -0.325, 0.43425925925925923]","[1, 1, 1, 1, 1, 1]","[0, 0, 0, 0, 0, 0]","[0, 0, 0, 0, 0, 0]","[5.670684199983953, 11.259450299985474, 18.850330499990378, 19.51777989999391, 22.353790900000604, 23.7717875999806]",['scale_sub_box'],,,,,,,,,,,N,6,普通话,2025-01-02_15h32.07.781,n_back_2,2023.2.1,59.72192277931209,2025-01-02 15h32.28.701998 +0800,
,,,,,,,,,,,0.0,0.0,0.0,0.0,,,,,,,,,,,,,,,,,,,,,,,,,,,,,,,,,,,,,,,,,,,,,,,,,,,,,,,,,,,,,,,,,,,,,,,,,,,,,,,,,,,,,,,,,,,,,,,,,,,,,,,,,,,,,,,,,,,,,,,,,,,,,,,,,,,,,,N,6,普通话,2025-01-02_15h32.07.781,n_back_2,2023.2.1,59.72192277931209,2025-01-02 15h32.28.701998 +0800,
168:210,1/2,2-,single,169.0,1/2,single,4.0,control,7.0,control,1.0,0.0,1.0,0.0,0.0,0.0,0.0,0.0,0.0,0.0,0.0,0.0,,,,,385.3278892999806,,,,,,,,,,,366.59312429997954,366.62473670000327,366.62473670000327,0.0021007000177633,366.62473670000327,366.62473670000327,366.62473670000327,366.62473670000327,366.62473670000327,366.62473670000327,366.62473670000327,366.62473670000327,366.62473670000327,382.57515620000777,0.0509259259259259,-0.2509259259259259,1.0,0.0,0.0,sa_t,382.5811455000076,382.6073761000007,382.6073761000007,382.6073761000007,382.6073761000007,384.0594621000055,l,1.4463981000008062,,384.0598551000003,384.1755764999834,384.1755764999834,384.1755764999834,384.1755764999834,385.3278892999806,385.3278892999806,385.3278892999806,385.3278892999806,385.1602633000002,385.19965349999256,385.19994669998414,385.19995779998135,385.3278892999806,385.3278892999806,385.3278892999806,385.3278892999806,385.3278892999806,385.3278892999806,385.3278892999806,385.3278892999806,385.82714889998897,387.6968188000028,,C:\Users\lujun\Desktop\01_n_back\data/N_6_n_back_2_2025-01-02_15h32.07.781_verval_resp_a_recorded\recording_verval_resp_a_2025-01-02_15h38.56.401.wav,387.7108608999988,387.933466699993,387.933466699993,387.933466699993,387.933466699993,387.933466699993,387.933466699993,387.81284919998143,[],control,0.0,0.0,0.0,Visaul OUT!,1/2,sa_t,0.001,,0.006793478260869565,NO_RESPOND,3.68,,,,,,,,,,,,,,,,,,,,,,,,,,,385.3117651800072,0.1048811000073328,,,,,,,,N,6,普通话,2025-01-02_15h32.07.781,n_back_2,2023.2.1,59.72192277931209,2025-01-02 15h32.28.701998 +0800,
168:210,1/2,2-,single,170.0,1/2,single,5.0,control,1.0,control,1.0,0.0,1.0,0.0,0.0,0.0,0.0,0.0,0.0,1.0,1.0,1.0,,,,,387.933466699993,,,,,,,,,,,,,,,,,,,,,,,,,,,,,,,,,,,,,,,,,,,,,,,,,,387.8131592999853,387.8133438999939,387.8133579999849,387.933466699993,387.933466699993,387.933466699993,387.933466699993,387.933466699993,387.933466699993,387.933466699993,387.933466699993,388.4490411999868,390.3016510999878,,C:\Users\lujun\Desktop\01_n_back\data/N_6_n_back_2_2025-01-02_15h32.07.781_verval_resp_a_recorded\recording_verval_resp_a_2025-01-02_15h38.59.001.wav,390.3110780999996,390.5331966999802,390.5331966999802,390.5331966999802,390.5331966999802,390.5331966999802,390.5331966999802,390.4120292000007,[],control,0.0,0.0,0.0,Visaul OUT!,1/2,sa_t,0.001,,0.006756756756756757,NO_RESPOND,3.7,,,,,,,,,,,,,,,,,,,,,,,,,,,387.9157452599931,0.0929159000224899,,,,,,,,N,6,普通话,2025-01-02_15h32.07.781,n_back_2,2023.2.1,59.72192277931209,2025-01-02 15h32.28.701998 +0800,
168:210,1/2,2-,single,171.0,1/2,single,4.0,l,7.0,l,1.0,0.0,1.0,0.0,0.0,0.0,0.0,0.0,0.0,2.0,2.0,2.0,,,,,390.5331966999802,,,,,,,,,,,,,,,,,,,,,,,,,,,,,,,,,,,,,,,,,,,,,,,,,,390.4124245999847,390.4126749999996,390.4126913000073,390.5331966999802,390.5331966999802,390.5331966999802,390.5331966999802,390.5331966999802,390.5331966999802,390.5331966999802,390.5331966999802,391.03248059999896,392.9015548999887,,C:\Users\lujun\Desktop\01_n_back\data/N_6_n_back_2_2025-01-02_15h32.07.781_verval_resp_a_recorded\recording_verval_resp_a_2025-01-02_15h39.01.600.wav,392.9104945999861,393.1270063999982,393.1270063999982,393.1270063999982,393.1270063999982,393.1270063999982,393.1270063999982,393.0063261000032,[],target,0.0,0.0,0.0,Visaul OUT!,1/2,sa_t,0.001,,1.0376712328767121,YES,3.65,,,,,,,,,,,,,,,,,,,,,,,,,,,390.5203983599815,0.0930759999901056,,,,,,,,N,6,普通话,2025-01-02_15h32.07.781,n_back_2,2023.2.1,59.72192277931209,2025-01-02 15h32.28.701998 +0800,
