back_rows,counter,block_notice,session_typy_block,NO,block,session_typy,numbers_v,corr_respond_v,numbers_a,corr_respond_a,trials_all.thisRepN,trials_all.thisTrialN,trials_all.thisN,trials_all.thisIndex,trials_rows.thisRepN,trials_rows.thisTrialN,trials_rows.thisN,trials_rows.thisIndex,trials.thisRepN,trials.thisTrialN,trials.thisN,trials.thisIndex,nasa_loop.thisRepN,nasa_loop.thisTrialN,nasa_loop.thisN,nasa_loop.thisIndex,thisRow.t,notes,instructions.started,instructionsTxt.started,fix_stimulus_2.started,fix_stimulus_2.stopped,key_resp.started,instructions.stopped,key_resp.keys,key_resp.rt,key_resp.duration,n_choose.started,dual_box.started,dual_box.stopped,model_choosing.started,sa_img.started,dual_img.started,sv_img.started,sa_text.started,dual_text.started,sv_text.started,sa_t.started,sv_t.started,dual_t.started,n_choose.stopped,model_choosing.x,model_choosing.y,model_choosing.leftButton,model_choosing.midButton,model_choosing.rightButton,model_choosing.clicked_name,block_notice.started,notice_textbox.started,text_2.started,text_2.stopped,key_resp_3.started,block_notice.stopped,key_resp_3.keys,key_resp_3.rt,key_resp_3.duration,fixation.started,fix.started,frame_fix.started,key_not_left_2.started,key_not_right_2.started,fix.stopped,frame_fix.stopped,key_not_left_2.stopped,key_not_right_2.stopped,fixation.stopped,stimulus_setting.started,stimulus_setting.stopped,trial.started,trial_counter_2.started,trial_counter_2.stopped,fix_stimulus.started,key_resp_v.started,stimulus_block.started,frame_trial.started,key_not_left.started,key_not_right.started,stimulus_block.stopped,trial.stopped,key_resp_v.keys,verval_resp_a.clip,feedback.started,trial_counter_f.started,trial_counter_f.stopped,fix_stimulus_feedback.started,fix_stimulus_feedback.stopped,frame_trial_2.started,frame_trial_2.stopped,feedback.stopped,RT_visual,trial-state_adudio,correct_visual,correct_visual_target,correct_visual_none-target,trial-state_visual,Block_name,Session,key_resp_v.rt,key_resp_v.duration,end_block.started,key_resp_2.started,end_block_message.started,end_block_message.stopped,end_block.stopped,key_resp_2.keys,NASA.started,form.started,mouse_4.started,nasa_title.started,NASA.stopped,form.index,form.itemText,form.type,form.font,form.markerColor,form.response,form.rt,mouse_4.x,mouse_4.y,mouse_4.leftButton,mouse_4.midButton,mouse_4.rightButton,mouse_4.time,mouse_4.clicked_name,scale_sub_box.started,stimulus_audio.started,verval_resp_a.started,key_resp_2.rt,key_resp_2.duration,end.started,text.started,key_resp_4.started,end.stopped,key_resp_4.keys,Group,ID,First_Language,date,expName,psychopyVersion,frameRate,expStart,
,,,,,,,,,,,,,,,,,,,,,,,,,,,,,0.009600999997928739,0.026648500002920628,0.026648500002920628,0.026648500002920628,0.026648500002920628,39.550889000005554,l,39.51493330000085,None,,,,,,,,,,,,,,,,,,,,,,,,,,,,,,,,,,,,,,,,,,,,,,,,,,,,,,,,,,,,,,,,,,,,,,,,,,,,,,,,,,,,,,,,,,,,,,,,,,,,,,,,,,,,N,6,普通话,2025-01-02_15h32.07.781,n_back_2,2023.2.1,59.72192277931209,2025-01-02 15h32.28.701998 +0800,
168:210,1/2,2-,single,169,1/2,single,4,control,7,control,0,0,0,0,0,0,0,0,0,0,0,0,,,,,75.93627929998911,,,,,,,,,,,39.55152919999091,40.400063499982934,40.400063499982934,0.8141961999936029,40.400063499982934,40.400063499982934,40.400063499982934,40.400063499982934,40.400063499982934,40.400063499982934,40.400063499982934,40.400063499982934,40.400063499982934,72.63305219999165,-0.5916666666666667,-0.24537037037037038,1,0,0,sv_t,72.64047529999516,72.66520389998914,72.66520389998914,72.66520389998914,72.66520389998914,74.7679586999875,l,2.098349399981089,None,74.76834019998205,74.83524220000254,74.83524220000254,74.83524220000254,74.83524220000254,75.93627929998911,75.93627929998911,75.93627929998911,75.93627929998911,75.82171249997918,75.86008579999907,75.860417399992,75.86043209998752,75.93627929998911,75.93627929998911,75.93627929998911,75.93627929998911,75.93627929998911,75.93627929998911,75.93627929998911,75.93627929998911,76.4380378999922,78.35724899999332,None,C:\Users\lujun\Desktop\01_n_back\data/N_6_n_back_2_2025-01-02_15h32.07.781_verval_resp_a_recorded\recording_verval_resp_a_2025-01-02_15h33.47.050.wav,78.3577995999949,78.52222260000417,78.52222260000417,78.52222260000417,78.52222260000417,78.52222260000417,78.52222260000417,78.41606069999398,[],Audio OUT!,0,0,0,control,1/2,sv_t,,,,,,,,,,,,,,,,,,,,,,,,,,,,,,,,,,,,,,N,6,普通话,2025-01-02_15h32.07.781,n_back_2,2023.2.1,59.72192277931209,2025-01-02 15h32.28.701998 +0800,
168:210,1/2,2-,single,170,1/2,single,5,control,1,control,0,0,0,0,0,0,0,0,0,1,1,1,,,,,78.52222260000417,,,,,,,,,,,,,,,,,,,,,,,,,,,,,,,,,,,,,,,,,,,,,,,,,,78.41637150000315,78.41653129999759,78.41654049998033,78.52222260000417,78.52222260000417,78.52222260000417,78.52222260000417,78.52222260000417,78.52222260000417,78.52222260000417,78.52222260000417,79.02424189998419,80.91029319999507,None,C:\Users\lujun\Desktop\01_n_back\data/N_6_n_back_2_2025-01-02_15h32.07.781_verval_resp_a_recorded\recording_verval_resp_a_2025-01-02_15h33.49.603.wav,80.91071450000163,81.1239360999898,81.1239360999898,81.1239360999898,81.1239360999898,81.1239360999898,81.1239360999898,81.0196323999844,[],Audio OUT!,0,0,0,control,1/2,sv_t,,,,,,,,,,,,,,,,,,,,,,,,,,,,,,,,,,,,,,N,6,普通话,2025-01-02_15h32.07.781,n_back_2,2023.2.1,59.72192277931209,2025-01-02 15h32.28.701998 +0800,
168:210,1/2,2-,single,171,1/2,single,4,l,7,l,0,0,0,0,0,0,0,0,0,2,2,2,,,,,81.1239360999898,,,,,,,,,,,,,,,,,,,,,,,,,,,,,,,,,,,,,,,,,,,,,,,,,,81.01987489999738,81.02001310000196,81.02002199998242,81.1239360999898,81.1239360999898,81.1239360999898,81.1239360999898,81.1239360999898,81.1239360999898,81.1239360999898,81.1239360999898,81.62442249999731,83.50989439999103,l,C:\Users\lujun\Desktop\01_n_back\data/N_6_n_back_2_2025-01-02_15h32.07.781_verval_resp_a_recorded\recording_verval_resp_a_2025-01-02_15h33.52.202.wav,83.51048969998374,83.72675729999901,83.72675729999901,83.72675729999901,83.72675729999901,83.72675729999901,83.72675729999901,83.62254949999624,601.0,Audio OUT!,1,1,0,target,1/2,sv_t,0.6005493000266142,None,,,,,,,,,,,,,,,,,,,,,,,,,,,,,,,,,,,,N,6,普通话,2025-01-02_15h32.07.781,n_back_2,2023.2.1,59.72192277931209,2025-01-02 15h32.28.701998 +0800,
168:210,1/2,2-,single,172,1/2,single,7,a,8,a,0,0,0,0,0,0,0,0,0,3,3,3,,,,,83.72675729999901,,,,,,,,,,,,,,,,,,,,,,,,,,,,,,,,,,,,,,,,,,,,,,,,,,83.62278030000743,83.62292199998046,83.62293099999079,83.72675729999901,83.72675729999901,83.72675729999901,83.72675729999901,83.72675729999901,83.72675729999901,83.72675729999901,83.72675729999901,84.22669999999925,86.11264129998744,a,C:\Users\lujun\Desktop\01_n_back\data/N_6_n_back_2_2025-01-02_15h32.07.781_verval_resp_a_recorded\recording_verval_resp_a_2025-01-02_15h33.54.805.wav,86.11321149999276,86.3293105000048,86.3293105000048,86.3293105000048,86.3293105000048,86.3293105000048,86.3293105000048,86.21351089997916,626.0,Audio OUT!,1,0,1,non-target,1/2,sv_t,0.6260588000004645,None,,,,,,,,,,,,,,,,,,,,,,,,,,,,,,,,,,,,N,6,普通话,2025-01-02_15h32.07.781,n_back_2,2023.2.1,59.72192277931209,2025-01-02 15h32.28.701998 +0800,
168:210,1/2,2-,single,173,1/2,single,8,a,4,a,0,0,0,0,0,0,0,0,0,4,4,4,,,,,86.3293105000048,,,,,,,,,,,,,,,,,,,,,,,,,,,,,,,,,,,,,,,,,,,,,,,,,,86.21374289999949,86.21388649998698,86.21389529999578,86.3293105000048,86.3293105000048,86.3293105000048,86.3293105000048,86.3293105000048,86.3293105000048,86.3293105000048,86.3293105000048,86.82937269998365,88.69857459998457,a,C:\Users\lujun\Desktop\01_n_back\data/N_6_n_back_2_2025-01-02_15h32.07.781_verval_resp_a_recorded\recording_verval_resp_a_2025-01-02_15h33.57.391.wav,88.69907869998133,88.9147796999896,88.9147796999896,88.9147796999896,88.9147796999896,88.9147796999896,88.9147796999896,88.80431249999674,889.0,Audio OUT!,1,0,1,non-target,1/2,sv_t,0.8893935999949463,None,,,,,,,,,,,,,,,,,,,,,,,,,,,,,,,,,,,,N,6,普通话,2025-01-02_15h32.07.781,n_back_2,2023.2.1,59.72192277931209,2025-01-02 15h32.28.701998 +0800,
168:210,1/2,2-,single,174,1/2,single,7,l,8,l,0,0,0,0,0,0,0,0,0,5,5,5,,,,,88.9147796999896,,,,,,,,,,,,,,,,,,,,,,,,,,,,,,,,,,,,,,,,,,,,,,,,,,88.80471500000567,88.80495499999961,88.8049733999942,88.9147796999896,88.9147796999896,88.9147796999896,88.9147796999896,88.9147796999896,88.9147796999896,88.9147796999896,88.9147796999896,89.41528319998179,91.30102869999246,l,C:\Users\lujun\Desktop\01_n_back\data/N_6_n_back_2_2025-01-02_15h32.07.781_verval_resp_a_recorded\recording_verval_resp_a_2025-01-02_15h33.59.993.wav,91.30153219998465,91.51826680000522,91.51826680000522,91.51826680000522,91.51826680000522,91.51826680000522,91.51826680000522,91.40035169999464,746.0,Audio OUT!,1,1,0,target,1/2,sv_t,0.7459375000034925,None,,,,,,,,,,,,,,,,,,,,,,,,,,,,,,,,,,,,N,6,普通话,2025-01-02_15h32.07.781,n_back_2,2023.2.1,59.72192277931209,2025-01-02 15h32.28.701998 +0800,
168:210,1/2,2-,single,175,1/2,single,2,a,4,l,0,0,0,0,0,0,0,0,0,6,6,6,,,,,91.51826680000522,,,,,,,,,,,,,,,,,,,,,,,,,,,,,,,,,,,,,,,,,,,,,,,,,,91.40062070000567,91.40076089999638,91.40077059998293,91.51826680000522,91.51826680000522,91.51826680000522,91.51826680000522,91.51826680000522,91.51826680000522,91.51826680000522,91.51826680000522,92.01818300000741,93.887026899989,a,C:\Users\lujun\Desktop\01_n_back\data/N_6_n_back_2_2025-01-02_15h32.07.781_verval_resp_a_recorded\recording_verval_resp_a_2025-01-02_15h34.02.579.wav,93.88752729998669,94.08711639998364,94.08711639998364,94.08711639998364,94.08711639998364,94.08711639998364,94.08711639998364,93.9828806000005,901.0,Audio OUT!,1,0,1,non-target,1/2,sv_t,0.9011685999867041,None,,,,,,,,,,,,,,,,,,,,,,,,,,,,,,,,,,,,N,6,普通话,2025-01-02_15h32.07.781,n_back_2,2023.2.1,59.72192277931209,2025-01-02 15h32.28.701998 +0800,
168:210,1/2,2-,single,176,1/2,single,7,l,7,a,0,0,0,0,0,0,0,0,0,7,7,7,,,,,94.08711639998364,,,,,,,,,,,,,,,,,,,,,,,,,,,,,,,,,,,,,,,,,,,,,,,,,,93.9831797000079,93.98332699999446,93.98333610000554,94.08711639998364,94.08711639998364,94.08711639998364,94.08711639998364,94.08711639998364,94.08711639998364,94.08711639998364,94.08711639998364,94.58995429999777,96.47575429998687,l,C:\Users\lujun\Desktop\01_n_back\data/N_6_n_back_2_2025-01-02_15h32.07.781_verval_resp_a_recorded\recording_verval_resp_a_2025-01-02_15h34.05.168.wav,96.4763241999899,96.67319999999017,96.67319999999017,96.67319999999017,96.67319999999017,96.67319999999017,96.67319999999017,96.56862429998,895.0,Audio OUT!,1,1,0,target,1/2,sv_t,0.8950863000063691,None,,,,,,,,,,,,,,,,,,,,,,,,,,,,,,,,,,,,N,6,普通话,2025-01-02_15h32.07.781,n_back_2,2023.2.1,59.72192277931209,2025-01-02 15h32.28.701998 +0800,
168:210,1/2,2-,single,177,1/2,single,7,a,4,l,0,0,0,0,0,0,0,0,0,8,8,8,,,,,96.67319999999017,,,,,,,,,,,,,,,,,,,,,,,,,,,,,,,,,,,,,,,,,,,,,,,,,,96.56888479998452,96.56902490000357,96.56903389998479,96.67319999999017,96.67319999999017,96.67319999999017,96.67319999999017,96.67319999999017,96.67319999999017,96.67319999999017,96.67319999999017,97.17584059998626,99.06150539999362,l,C:\Users\lujun\Desktop\01_n_back\data/N_6_n_back_2_2025-01-02_15h32.07.781_verval_resp_a_recorded\recording_verval_resp_a_2025-01-02_15h34.07.754.wav,99.06200539998827,99.27520549998735,99.27520549998735,99.27520549998735,99.27520549998735,99.27520549998735,99.27520549998735,99.15680490000523,810.0,Audio OUT!,0,0,0,non-target,1/2,sv_t,0.8101090999844018,None,,,,,,,,,,,,,,,,,,,,,,,,,,,,,,,,,,,,N,6,普通话,2025-01-02_15h32.07.781,n_back_2,2023.2.1,59.72192277931209,2025-01-02 15h32.28.701998 +0800,
168:210,1/2,2-,single,178,1/2,single,2,a,2,a,0,0,0,0,0,0,0,0,0,9,9,9,,,,,99.27520549998735,,,,,,,,,,,,,,,,,,,,,,,,,,,,,,,,,,,,,,,,,,,,,,,,,,99.1570628999907,99.1571927999903,99.15720169999986,99.27520549998735,99.27520549998735,99.27520549998735,99.27520549998735,99.27520549998735,99.27520549998735,99.27520549998735,99.27520549998735,99.77554060000693,101.64464479999151,a,C:\Users\lujun\Desktop\01_n_back\data/N_6_n_back_2_2025-01-02_15h32.07.781_verval_resp_a_recorded\recording_verval_resp_a_2025-01-02_15h34.10.337.wav,101.64517559998785,101.86112859999412,101.86112859999412,101.86112859999412,101.86112859999412,101.86112859999412,101.86112859999412,101.74387760000536,534.0,Audio OUT!,1,0,1,non-target,1/2,sv_t,0.5343060999875888,None,,,,,,,,,,,,,,,,,,,,,,,,,,,,,,,,,,,,N,6,普通话,2025-01-02_15h32.07.781,n_back_2,2023.2.1,59.72192277931209,2025-01-02 15h32.28.701998 +0800,
168:210,1/2,2-,single,179,1/2,single,6,a,1,a,0,0,0,0,0,0,0,0,0,10,10,10,,,,,101.86112859999412,,,,,,,,,,,,,,,,,,,,,,,,,,,,,,,,,,,,,,,,,,,,,,,,,,101.74413539998932,101.74426770000719,101.7442766999884,101.86112859999412,101.86112859999412,101.86112859999412,101.86112859999412,101.86112859999412,101.86112859999412,101.86112859999412,101.86112859999412,102.3614430000016,104.2305456000031,a,C:\Users\lujun\Desktop\01_n_back\data/N_6_n_back_2_2025-01-02_15h32.07.781_verval_resp_a_recorded\recording_verval_resp_a_2025-01-02_15h34.12.923.wav,104.23108669999056,104.43165270000463,104.43165270000463,104.43165270000463,104.43165270000463,104.43165270000463,104.43165270000463,104.32630270000664,929.0,Audio OUT!,1,0,1,non-target,1/2,sv_t,0.9290893000143114,None,,,,,,,,,,,,,,,,,,,,,,,,,,,,,,,,,,,,N,6,普通话,2025-01-02_15h32.07.781,n_back_2,2023.2.1,59.72192277931209,2025-01-02 15h32.28.701998 +0800,
168:210,1/2,2-,single,180,1/2,single,2,l,3,a,0,0,0,0,0,0,0,0,0,11,11,11,,,,,104.43165270000463,,,,,,,,,,,,,,,,,,,,,,,,,,,,,,,,,,,,,,,,,,,,,,,,,,104.32655959998374,104.32670279999729,104.32671229998232,104.43165270000463,104.43165270000463,104.43165270000463,104.43165270000463,104.43165270000463,104.43165270000463,104.43165270000463,104.43165270000463,104.93295919999946,106.81907050000154,l,C:\Users\lujun\Desktop\01_n_back\data/N_6_n_back_2_2025-01-02_15h32.07.781_verval_resp_a_recorded\recording_verval_resp_a_2025-01-02_15h34.15.511.wav,106.81956340000033,107.01763449999271,107.01763449999271,107.01763449999271,107.01763449999271,107.01763449999271,107.01763449999271,106.91128959998605,724.0,Audio OUT!,1,1,0,target,1/2,sv_t,0.7237129999848548,None,,,,,,,,,,,,,,,,,,,,,,,,,,,,,,,,,,,,N,6,普通话,2025-01-02_15h32.07.781,n_back_2,2023.2.1,59.72192277931209,2025-01-02 15h32.28.701998 +0800,
168:210,1/2,2-,single,181,1/2,single,1,a,1,l,0,0,0,0,0,0,0,0,0,12,12,12,,,,,107.01763449999271,,,,,,,,,,,,,,,,,,,,,,,,,,,,,,,,,,,,,,,,,,,,,,,,,,106.91154939998523,106.91168839999591,106.91169730000547,107.01763449999271,107.01763449999271,107.01763449999271,107.01763449999271,107.01763449999271,107.01763449999271,107.01763449999271,107.01763449999271,107.51888109999709,109.40485530000296,a,C:\Users\lujun\Desktop\01_n_back\data/N_6_n_back_2_2025-01-02_15h32.07.781_verval_resp_a_recorded\recording_verval_resp_a_2025-01-02_15h34.18.097.wav,109.4053600000043,109.61876660000416,109.61876660000416,109.61876660000416,109.61876660000416,109.61876660000416,109.61876660000416,109.50011289998656,1131.0,Audio OUT!,1,0,1,non-target,1/2,sv_t,1.1313745999941602,None,,,,,,,,,,,,,,,,,,,,,,,,,,,,,,,,,,,,N,6,普通话,2025-01-02_15h32.07.781,n_back_2,2023.2.1,59.72192277931209,2025-01-02 15h32.28.701998 +0800,
168:210,1/2,2-,single,182,1/2,single,5,a,3,l,0,0,0,0,0,0,0,0,0,13,13,13,,,,,109.61876660000416,,,,,,,,,,,,,,,,,,,,,,,,,,,,,,,,,,,,,,,,,,,,,,,,,,109.5003722999827,109.50051829998847,109.50052750000032,109.61876660000416,109.61876660000416,109.61876660000416,109.61876660000416,109.61876660000416,109.61876660000416,109.61876660000416,109.61876660000416,110.11920459999237,111.99094920000061,a,C:\Users\lujun\Desktop\01_n_back\data/N_6_n_back_2_2025-01-02_15h32.07.781_verval_resp_a_recorded\recording_verval_resp_a_2025-01-02_15h34.20.683.wav,111.99145979998866,112.18839189998107,112.18839189998107,112.18839189998107,112.18839189998107,112.18839189998107,112.18839189998107,112.08301519998349,1626.0,Audio OUT!,1,0,1,non-target,1/2,sv_t,1.6255299000185914,None,,,,,,,,,,,,,,,,,,,,,,,,,,,,,,,,,,,,N,6,普通话,2025-01-02_15h32.07.781,n_back_2,2023.2.1,59.72192277931209,2025-01-02 15h32.28.701998 +0800,
168:210,1/2,2-,single,183,1/2,single,4,a,2,a,0,0,0,0,0,0,0,0,0,14,14,14,,,,,112.18839189998107,,,,,,,,,,,,,,,,,,,,,,,,,,,,,,,,,,,,,,,,,,,,,,,,,,112.08327529998496,112.08341479999945,112.08342569999513,112.18839189998107,112.18839189998107,112.18839189998107,112.18839189998107,112.18839189998107,112.18839189998107,112.18839189998107,112.18839189998107,112.69073519998346,114.5767610000039,a,C:\Users\lujun\Desktop\01_n_back\data/N_6_n_back_2_2025-01-02_15h32.07.781_verval_resp_a_recorded\recording_verval_resp_a_2025-01-02_15h34.23.269.wav,114.57726649998222,114.79069999998319,114.79069999998319,114.79069999998319,114.79069999998319,114.79069999998319,114.79069999998319,114.67184279998764,1643.0,Audio OUT!,1,0,1,non-target,1/2,sv_t,1.6425711000047158,None,,,,,,,,,,,,,,,,,,,,,,,,,,,,,,,,,,,,N,6,普通话,2025-01-02_15h32.07.781,n_back_2,2023.2.1,59.72192277931209,2025-01-02 15h32.28.701998 +0800,
168:210,1/2,2-,single,184,1/2,single,5,l,3,l,0,0,0,0,0,0,0,0,0,15,15,15,,,,,114.79069999998319,,,,,,,,,,,,,,,,,,,,,,,,,,,,,,,,,,,,,,,,,,,,,,,,,,114.67213130000164,114.67228589998558,114.67229699998279,114.79069999998319,114.79069999998319,114.79069999998319,114.79069999998319,114.79069999998319,114.79069999998319,114.79069999998319,114.79069999998319,115.29102069998044,117.16029279999202,l,C:\Users\lujun\Desktop\01_n_back\data/N_6_n_back_2_2025-01-02_15h32.07.781_verval_resp_a_recorded\recording_verval_resp_a_2025-01-02_15h34.25.853.wav,117.16083269999945,117.3765362999984,117.3765362999984,117.3765362999984,117.3765362999984,117.3765362999984,117.3765362999984,117.25270739998086,898.0,Audio OUT!,1,1,0,target,1/2,sv_t,0.8982197000004817,None,,,,,,,,,,,,,,,,,,,,,,,,,,,,,,,,,,,,N,6,普通话,2025-01-02_15h32.07.781,n_back_2,2023.2.1,59.72192277931209,2025-01-02 15h32.28.701998 +0800,
168:210,1/2,2-,single,185,1/2,single,4,l,6,a,0,0,0,0,0,0,0,0,0,16,16,16,,,,,117.3765362999984,,,,,,,,,,,,,,,,,,,,,,,,,,,,,,,,,,,,,,,,,,,,,,,,,,117.25299639999866,117.25315390000469,117.25316480000038,117.3765362999984,117.3765362999984,117.3765362999984,117.3765362999984,117.3765362999984,117.3765362999984,117.3765362999984,117.3765362999984,117.87694839999313,119.74600569999893,l,C:\Users\lujun\Desktop\01_n_back\data/N_6_n_back_2_2025-01-02_15h32.07.781_verval_resp_a_recorded\recording_verval_resp_a_2025-01-02_15h34.28.438.wav,119.7465028000006,119.94817950000288,119.94817950000288,119.94817950000288,119.94817950000288,119.94817950000288,119.94817950000288,119.8418260999897,1591.0,Audio OUT!,1,1,0,target,1/2,sv_t,1.591031899995869,None,,,,,,,,,,,,,,,,,,,,,,,,,,,,,,,,,,,,N,6,普通话,2025-01-02_15h32.07.781,n_back_2,2023.2.1,59.72192277931209,2025-01-02 15h32.28.701998 +0800,
168:210,1/2,2-,single,186,1/2,single,3,a,1,a,0,0,0,0,0,0,0,0,0,17,17,17,,,,,119.94817950000288,,,,,,,,,,,,,,,,,,,,,,,,,,,,,,,,,,,,,,,,,,,,,,,,,,119.8420863999927,119.84223320000456,119.84224189998349,119.94817950000288,119.94817950000288,119.94817950000288,119.94817950000288,119.94817950000288,119.94817950000288,119.94817950000288,119.94817950000288,120.44859369998449,122.33470149998902,a,C:\Users\lujun\Desktop\01_n_back\data/N_6_n_back_2_2025-01-02_15h32.07.781_verval_resp_a_recorded\recording_verval_resp_a_2025-01-02_15h34.31.027.wav,122.33547659998294,122.5330175999843,122.5330175999843,122.5330175999843,122.5330175999843,122.5330175999843,122.5330175999843,122.42716689998633,1173.0,Audio OUT!,1,0,1,non-target,1/2,sv_t,1.1726807999948505,None,,,,,,,,,,,,,,,,,,,,,,,,,,,,,,,,,,,,N,6,普通话,2025-01-02_15h32.07.781,n_back_2,2023.2.1,59.72192277931209,2025-01-02 15h32.28.701998 +0800,
168:210,1/2,2-,single,187,1/2,single,7,a,6,l,0,0,0,0,0,0,0,0,0,18,18,18,,,,,122.5330175999843,,,,,,,,,,,,,,,,,,,,,,,,,,,,,,,,,,,,,,,,,,,,,,,,,,122.42745379998814,122.42761230000178,122.42762189998757,122.5330175999843,122.5330175999843,122.5330175999843,122.5330175999843,122.5330175999843,122.5330175999843,122.5330175999843,122.5330175999843,123.03505659999792,124.92084679999971,a,C:\Users\lujun\Desktop\01_n_back\data/N_6_n_back_2_2025-01-02_15h32.07.781_verval_resp_a_recorded\recording_verval_resp_a_2025-01-02_15h34.33.613.wav,124.92156620000605,125.13459339999827,125.13459339999827,125.13459339999827,125.13459339999827,125.13459339999827,125.13459339999827,125.01676070000394,960.0,Audio OUT!,1,0,1,non-target,1/2,sv_t,0.95959959999891,None,,,,,,,,,,,,,,,,,,,,,,,,,,,,,,,,,,,,N,6,普通话,2025-01-02_15h32.07.781,n_back_2,2023.2.1,59.72192277931209,2025-01-02 15h32.28.701998 +0800,
168:210,1/2,2-,single,188,1/2,single,3,l,1,l,0,0,0,0,0,0,0,0,0,19,19,19,,,,,125.13459339999827,,,,,,,,,,,,,,,,,,,,,,,,,,,,,,,,,,,,,,,,,,,,,,,,,,125.0170167000033,125.01718789999723,125.01719729998149,125.13459339999827,125.13459339999827,125.13459339999827,125.13459339999827,125.13459339999827,125.13459339999827,125.13459339999827,125.13459339999827,125.6347570999933,127.5039523000014,l,C:\Users\lujun\Desktop\01_n_back\data/N_6_n_back_2_2025-01-02_15h32.07.781_verval_resp_a_recorded\recording_verval_resp_a_2025-01-02_15h34.36.197.wav,127.50445710000349,127.70348239998566,127.70348239998566,127.70348239998566,127.70348239998566,127.70348239998566,127.70348239998566,127.5956368999905,781.0,Audio OUT!,1,1,0,target,1/2,sv_t,0.7808356000168715,None,,,,,,,,,,,,,,,,,,,,,,,,,,,,,,,,,,,,N,6,普通话,2025-01-02_15h32.07.781,n_back_2,2023.2.1,59.72192277931209,2025-01-02 15h32.28.701998 +0800,
168:210,1/2,2-,single,189,1/2,single,7,l,7,a,0,0,0,0,0,0,0,0,0,20,20,20,,,,,127.70348239998566,,,,,,,,,,,,,,,,,,,,,,,,,,,,,,,,,,,,,,,,,,,,,,,,,,127.59592669998528,127.59608359998674,127.5960942999809,127.70348239998566,127.70348239998566,127.70348239998566,127.70348239998566,127.70348239998566,127.70348239998566,127.70348239998566,127.70348239998566,128.20385089999763,130.08976519998396,l,C:\Users\lujun\Desktop\01_n_back\data/N_6_n_back_2_2025-01-02_15h32.07.781_verval_resp_a_recorded\recording_verval_resp_a_2025-01-02_15h34.38.782.wav,130.09032689998276,130.29160949998186,130.29160949998186,130.29160949998186,130.29160949998186,130.29160949998186,130.29160949998186,130.18566809999174,883.0,Audio OUT!,1,1,0,target,1/2,sv_t,0.8831043999816757,None,,,,,,,,,,,,,,,,,,,,,,,,,,,,,,,,,,,,N,6,普通话,2025-01-02_15h32.07.781,n_back_2,2023.2.1,59.72192277931209,2025-01-02 15h32.28.701998 +0800,
168:210,1/2,2-,single,190,1/2,single,2,a,1,l,0,0,0,0,0,0,0,0,0,21,21,21,,,,,130.29160949998186,,,,,,,,,,,,,,,,,,,,,,,,,,,,,,,,,,,,,,,,,,,,,,,,,,130.18596010000329,130.1861188999901,130.18612919998122,130.29160949998186,130.29160949998186,130.29160949998186,130.29160949998186,130.29160949998186,130.29160949998186,130.29160949998186,130.29160949998186,130.79208099999232,132.67819459998282,a,C:\Users\lujun\Desktop\01_n_back\data/N_6_n_back_2_2025-01-02_15h32.07.781_verval_resp_a_recorded\recording_verval_resp_a_2025-01-02_15h34.41.370.wav,132.6787389999954,132.8761065999861,132.8761065999861,132.8761065999861,132.8761065999861,132.8761065999861,132.8761065999861,132.77013799999258,1441.0,Audio OUT!,1,0,1,non-target,1/2,sv_t,1.4413823999930173,None,,,,,,,,,,,,,,,,,,,,,,,,,,,,,,,,,,,,N,6,普通话,2025-01-02_15h32.07.781,n_back_2,2023.2.1,59.72192277931209,2025-01-02 15h32.28.701998 +0800,
168:210,1/2,2-,single,191,1/2,single,4,a,6,a,0,0,0,0,0,0,0,0,0,22,22,22,,,,,132.8761065999861,,,,,,,,,,,,,,,,,,,,,,,,,,,,,,,,,,,,,,,,,,,,,,,,,,132.7703945999965,132.77052699998603,132.77053619999788,132.8761065999861,132.8761065999861,132.8761065999861,132.8761065999861,132.8761065999861,132.8761065999861,132.8761065999861,132.8761065999861,133.37817989999894,135.26405519997934,a,C:\Users\lujun\Desktop\01_n_back\data/N_6_n_back_2_2025-01-02_15h32.07.781_verval_resp_a_recorded\recording_verval_resp_a_2025-01-02_15h34.43.956.wav,135.2645848999964,135.47851049999008,135.47851049999008,135.47851049999008,135.47851049999008,135.47851049999008,135.47851049999008,135.36004179998417,1065.0,Audio OUT!,1,0,1,non-target,1/2,sv_t,1.0651520999963395,None,,,,,,,,,,,,,,,,,,,,,,,,,,,,,,,,,,,,N,6,普通话,2025-01-02_15h32.07.781,n_back_2,2023.2.1,59.72192277931209,2025-01-02 15h32.28.701998 +0800,
168:210,1/2,2-,single,192,1/2,single,2,l,5,a,0,0,0,0,0,0,0,0,0,23,23,23,,,,,135.47851049999008,,,,,,,,,,,,,,,,,,,,,,,,,,,,,,,,,,,,,,,,,,,,,,,,,,135.36029959999723,135.3604447999969,135.36045419998118,135.47851049999008,135.47851049999008,135.47851049999008,135.47851049999008,135.47851049999008,135.47851049999008,135.47851049999008,135.47851049999008,135.97850919998018,137.84741990000475,l,C:\Users\lujun\Desktop\01_n_back\data/N_6_n_back_2_2025-01-02_15h32.07.781_verval_resp_a_recorded\recording_verval_resp_a_2025-01-02_15h34.46.540.wav,137.84792460000608,138.04701429998386,138.04701429998386,138.04701429998386,138.04701429998386,138.04701429998386,138.04701429998386,137.93902140000137,887.0,Audio OUT!,1,1,0,target,1/2,sv_t,0.8873830000229646,None,,,,,,,,,,,,,,,,,,,,,,,,,,,,,,,,,,,,N,6,普通话,2025-01-02_15h32.07.781,n_back_2,2023.2.1,59.72192277931209,2025-01-02 15h32.28.701998 +0800,
168:210,1/2,2-,single,193,1/2,single,4,l,5,a,0,0,0,0,0,0,0,0,0,24,24,24,,,,,138.04701429998386,,,,,,,,,,,,,,,,,,,,,,,,,,,,,,,,,,,,,,,,,,,,,,,,,,137.93927729999996,137.93941550000454,137.93942499998957,138.04701429998386,138.04701429998386,138.04701429998386,138.04701429998386,138.04701429998386,138.04701429998386,138.04701429998386,138.04701429998386,138.54751839998062,140.43371829998796,l,C:\Users\lujun\Desktop\01_n_back\data/N_6_n_back_2_2025-01-02_15h32.07.781_verval_resp_a_recorded\recording_verval_resp_a_2025-01-02_15h34.49.126.wav,140.43422860000283,140.6344492000062,140.6344492000062,140.6344492000062,140.6344492000062,140.6344492000062,140.6344492000062,140.5293340999924,942.0,Audio OUT!,1,1,0,target,1/2,sv_t,0.9417139000142924,None,,,,,,,,,,,,,,,,,,,,,,,,,,,,,,,,,,,,N,6,普通话,2025-01-02_15h32.07.781,n_back_2,2023.2.1,59.72192277931209,2025-01-02 15h32.28.701998 +0800,
168:210,1/2,2-,single,194,1/2,single,1,a,8,a,0,0,0,0,0,0,0,0,0,25,25,25,,,,,140.6344492000062,,,,,,,,,,,,,,,,,,,,,,,,,,,,,,,,,,,,,,,,,,,,,,,,,,140.52962970000226,140.52982629998587,140.52983680000762,140.6344492000062,140.6344492000062,140.6344492000062,140.6344492000062,140.6344492000062,140.6344492000062,140.6344492000062,140.6344492000062,141.1359187999915,143.02143439999782,a,C:\Users\lujun\Desktop\01_n_back\data/N_6_n_back_2_2025-01-02_15h32.07.781_verval_resp_a_recorded\recording_verval_resp_a_2025-01-02_15h34.51.714.wav,143.02193620000617,143.21903700000257,143.21903700000257,143.21903700000257,143.21903700000257,143.21903700000257,143.21903700000257,143.11311330000171,825.0,Audio OUT!,1,0,1,non-target,1/2,sv_t,0.8252556000079494,None,,,,,,,,,,,,,,,,,,,,,,,,,,,,,,,,,,,,N,6,普通话,2025-01-02_15h32.07.781,n_back_2,2023.2.1,59.72192277931209,2025-01-02 15h32.28.701998 +0800,
168:210,1/2,2-,single,195,1/2,single,2,a,8,a,0,0,0,0,0,0,0,0,0,26,26,26,,,,,143.21903700000257,,,,,,,,,,,,,,,,,,,,,,,,,,,,,,,,,,,,,,,,,,,,,,,,,,143.1133707999834,143.11353209998924,143.11355639999965,143.21903700000257,143.21903700000257,143.21903700000257,143.21903700000257,143.21903700000257,143.21903700000257,143.21903700000257,143.21903700000257,143.71965640000417,145.6057557000022,a,C:\Users\lujun\Desktop\01_n_back\data/N_6_n_back_2_2025-01-02_15h32.07.781_verval_resp_a_recorded\recording_verval_resp_a_2025-01-02_15h34.54.298.wav,145.606260200002,145.82152729999507,145.82152729999507,145.82152729999507,145.82152729999507,145.82152729999507,145.82152729999507,145.70261509998818,783.0,Audio OUT!,1,0,1,non-target,1/2,sv_t,0.782521800021641,None,,,,,,,,,,,,,,,,,,,,,,,,,,,,,,,,,,,,N,6,普通话,2025-01-02_15h32.07.781,n_back_2,2023.2.1,59.72192277931209,2025-01-02 15h32.28.701998 +0800,
168:210,1/2,2-,single,196,1/2,single,1,l,8,l,0,0,0,0,0,0,0,0,0,27,27,27,,,,,145.82152729999507,,,,,,,,,,,,,,,,,,,,,,,,,,,,,,,,,,,,,,,,,,,,,,,,,,145.7028763999988,145.7030264000059,145.70303589999094,145.82152729999507,145.82152729999507,145.82152729999507,145.82152729999507,145.82152729999507,145.82152729999507,145.82152729999507,145.82152729999507,146.32202849999885,148.1914473999932,l,C:\Users\lujun\Desktop\01_n_back\data/N_6_n_back_2_2025-01-02_15h32.07.781_verval_resp_a_recorded\recording_verval_resp_a_2025-01-02_15h34.56.884.wav,148.1919487999985,148.3906144000066,148.3906144000066,148.3906144000066,148.3906144000066,148.3906144000066,148.3906144000066,148.28317290000268,978.0,Audio OUT!,1,1,0,target,1/2,sv_t,0.9776450999779627,None,,,,,,,,,,,,,,,,,,,,,,,,,,,,,,,,,,,,N,6,普通话,2025-01-02_15h32.07.781,n_back_2,2023.2.1,59.72192277931209,2025-01-02 15h32.28.701998 +0800,
168:210,1/2,2-,single,197,1/2,single,4,a,8,l,0,0,0,0,0,0,0,0,0,28,28,28,,,,,148.3906144000066,,,,,,,,,,,,,,,,,,,,,,,,,,,,,,,,,,,,,,,,,,,,,,,,,,148.28346479998436,148.28361650000443,148.28362760000164,148.3906144000066,148.3906144000066,148.3906144000066,148.3906144000066,148.3906144000066,148.3906144000066,148.3906144000066,148.3906144000066,148.89110509998864,150.7773629000003,a,C:\Users\lujun\Desktop\01_n_back\data/N_6_n_back_2_2025-01-02_15h32.07.781_verval_resp_a_recorded\recording_verval_resp_a_2025-01-02_15h34.59.470.wav,150.77786410000408,150.97843339998508,150.97843339998508,150.97843339998508,150.97843339998508,150.97843339998508,150.97843339998508,150.87293799998588,1348.0,Audio OUT!,1,0,1,non-target,1/2,sv_t,1.348175799997989,None,,,,,,,,,,,,,,,,,,,,,,,,,,,,,,,,,,,,N,6,普通话,2025-01-02_15h32.07.781,n_back_2,2023.2.1,59.72192277931209,2025-01-02 15h32.28.701998 +0800,
168:210,1/2,2-,single,198,1/2,single,3,a,5,a,0,0,0,0,0,0,0,0,0,29,29,29,,,,,150.97843339998508,,,,,,,,,,,,,,,,,,,,,,,,,,,,,,,,,,,,,,,,,,,,,,,,,,150.873194099986,150.87332099999185,150.87333000000217,150.97843339998508,150.97843339998508,150.97843339998508,150.97843339998508,150.97843339998508,150.97843339998508,150.97843339998508,150.97843339998508,151.47962669999106,153.36521139999968,a,C:\Users\lujun\Desktop\01_n_back\data/N_6_n_back_2_2025-01-02_15h32.07.781_verval_resp_a_recorded\recording_verval_resp_a_2025-01-02_15h35.02.057.wav,153.36572469997918,153.56250020000152,153.56250020000152,153.56250020000152,153.56250020000152,153.56250020000152,153.56250020000152,153.45628399998532,1255.0,Audio OUT!,1,0,1,non-target,1/2,sv_t,1.2547059999778867,None,,,,,,,,,,,,,,,,,,,,,,,,,,,,,,,,,,,,N,6,普通话,2025-01-02_15h32.07.781,n_back_2,2023.2.1,59.72192277931209,2025-01-02 15h32.28.701998 +0800,
168:210,1/2,2-,single,199,1/2,single,4,l,5,a,0,0,0,0,0,0,0,0,0,30,30,30,,,,,153.56250020000152,,,,,,,,,,,,,,,,,,,,,,,,,,,,,,,,,,,,,,,,,,,,,,,,,,153.45654469999135,153.4566949,153.45670429998427,153.56250020000152,153.56250020000152,153.56250020000152,153.56250020000152,153.56250020000152,153.56250020000152,153.56250020000152,153.56250020000152,154.0631158000033,155.94885129999602,l,C:\Users\lujun\Desktop\01_n_back\data/N_6_n_back_2_2025-01-02_15h32.07.781_verval_resp_a_recorded\recording_verval_resp_a_2025-01-02_15h35.04.641.wav,155.9493608000048,156.1498511999962,156.1498511999962,156.1498511999962,156.1498511999962,156.1498511999962,156.1498511999962,156.04471789998934,780.0,Audio OUT!,1,1,0,target,1/2,sv_t,0.7796614000108093,None,,,,,,,,,,,,,,,,,,,,,,,,,,,,,,,,,,,,N,6,普通话,2025-01-02_15h32.07.781,n_back_2,2023.2.1,59.72192277931209,2025-01-02 15h32.28.701998 +0800,
168:210,1/2,2-,single,200,1/2,single,4,a,6,a,0,0,0,0,0,0,0,0,0,31,31,31,,,,,156.1498511999962,,,,,,,,,,,,,,,,,,,,,,,,,,,,,,,,,,,,,,,,,,,,,,,,,,156.04497590000392,156.04510729998583,156.0451161999954,156.1498511999962,156.1498511999962,156.1498511999962,156.1498511999962,156.1498511999962,156.1498511999962,156.1498511999962,156.1498511999962,156.65146480000112,158.5371269999887,l,C:\Users\lujun\Desktop\01_n_back\data/N_6_n_back_2_2025-01-02_15h32.07.781_verval_resp_a_recorded\recording_verval_resp_a_2025-01-02_15h35.07.229.wav,158.53765079998993,158.73488619999262,158.73488619999262,158.73488619999262,158.73488619999262,158.73488619999262,158.73488619999262,158.62865719999536,691.0,Audio OUT!,0,0,0,non-target,1/2,sv_t,0.6907257999991998,None,,,,,,,,,,,,,,,,,,,,,,,,,,,,,,,,,,,,N,6,普通话,2025-01-02_15h32.07.781,n_back_2,2023.2.1,59.72192277931209,2025-01-02 15h32.28.701998 +0800,
168:210,1/2,2-,single,201,1/2,single,7,a,5,l,0,0,0,0,0,0,0,0,0,32,32,32,,,,,158.73488619999262,,,,,,,,,,,,,,,,,,,,,,,,,,,,,,,,,,,,,,,,,,,,,,,,,,158.628919699986,158.62905409999075,158.62906289999955,158.73488619999262,158.73488619999262,158.73488619999262,158.73488619999262,158.73488619999262,158.73488619999262,158.73488619999262,158.73488619999262,159.23739049999858,161.12321019999217,a,C:\Users\lujun\Desktop\01_n_back\data/N_6_n_back_2_2025-01-02_15h32.07.781_verval_resp_a_recorded\recording_verval_resp_a_2025-01-02_15h35.09.816.wav,161.12390639999649,161.3226997999882,161.3226997999882,161.3226997999882,161.3226997999882,161.3226997999882,161.3226997999882,161.21854309999617,1395.0,Audio OUT!,1,0,1,non-target,1/2,sv_t,1.3954542000137735,None,,,,,,,,,,,,,,,,,,,,,,,,,,,,,,,,,,,,N,6,普通话,2025-01-02_15h32.07.781,n_back_2,2023.2.1,59.72192277931209,2025-01-02 15h32.28.701998 +0800,
168:210,1/2,2-,single,202,1/2,single,4,l,1,a,0,0,0,0,0,0,0,0,0,33,33,33,,,,,161.3226997999882,,,,,,,,,,,,,,,,,,,,,,,,,,,,,,,,,,,,,,,,,,,,,,,,,,161.2188007000077,161.21894160000375,161.218950999988,161.3226997999882,161.3226997999882,161.3226997999882,161.3226997999882,161.3226997999882,161.3226997999882,161.3226997999882,161.3226997999882,161.82329480000772,163.70883749998757,l,C:\Users\lujun\Desktop\01_n_back\data/N_6_n_back_2_2025-01-02_15h32.07.781_verval_resp_a_recorded\recording_verval_resp_a_2025-01-02_15h35.12.401.wav,163.7093390999944,163.90662639998482,163.90662639998482,163.90662639998482,163.90662639998482,163.90662639998482,163.90662639998482,163.80045869998867,810.0,Audio OUT!,1,1,0,target,1/2,sv_t,0.8101018999877851,None,,,,,,,,,,,,,,,,,,,,,,,,,,,,,,,,,,,,N,6,普通话,2025-01-02_15h32.07.781,n_back_2,2023.2.1,59.72192277931209,2025-01-02 15h32.28.701998 +0800,
168:210,1/2,2-,single,203,1/2,single,6,a,5,l,0,0,0,0,0,0,0,0,0,34,34,34,,,,,163.90662639998482,,,,,,,,,,,,,,,,,,,,,,,,,,,,,,,,,,,,,,,,,,,,,,,,,,163.8007152999926,163.80085770000005,163.80086719998508,163.90662639998482,163.90662639998482,163.90662639998482,163.90662639998482,163.90662639998482,163.90662639998482,163.90662639998482,163.90662639998482,164.4091833999846,166.2950312999892,a,C:\Users\lujun\Desktop\01_n_back\data/N_6_n_back_2_2025-01-02_15h32.07.781_verval_resp_a_recorded\recording_verval_resp_a_2025-01-02_15h35.14.987.wav,166.29553069997928,166.50879170000553,166.50879170000553,166.50879170000553,166.50879170000553,166.50879170000553,166.50879170000553,166.39057240000693,1342.0,Audio OUT!,1,0,1,non-target,1/2,sv_t,1.341684000013629,None,,,,,,,,,,,,,,,,,,,,,,,,,,,,,,,,,,,,N,6,普通话,2025-01-02_15h32.07.781,n_back_2,2023.2.1,59.72192277931209,2025-01-02 15h32.28.701998 +0800,
168:210,1/2,2-,single,204,1/2,single,1,a,4,a,0,0,0,0,0,0,0,0,0,35,35,35,,,,,166.50879170000553,,,,,,,,,,,,,,,,,,,,,,,,,,,,,,,,,,,,,,,,,,,,,,,,,,166.3908311999985,166.390960299992,166.39096920000156,166.50879170000553,166.50879170000553,166.50879170000553,166.50879170000553,166.50879170000553,166.50879170000553,166.50879170000553,166.50879170000553,167.00923049999983,168.8784253000049,a,C:\Users\lujun\Desktop\01_n_back\data/N_6_n_back_2_2025-01-02_15h32.07.781_verval_resp_a_recorded\recording_verval_resp_a_2025-01-02_15h35.17.570.wav,168.87895189999836,169.07844189999742,169.07844189999742,169.07844189999742,169.07844189999742,169.07844189999742,169.07844189999742,168.9706237000064,742.0,Audio OUT!,1,0,1,non-target,1/2,sv_t,0.7416514000215102,None,,,,,,,,,,,,,,,,,,,,,,,,,,,,,,,,,,,,N,6,普通话,2025-01-02_15h32.07.781,n_back_2,2023.2.1,59.72192277931209,2025-01-02 15h32.28.701998 +0800,
168:210,1/2,2-,single,205,1/2,single,6,l,5,l,0,0,0,0,0,0,0,0,0,36,36,36,,,,,169.07844189999742,,,,,,,,,,,,,,,,,,,,,,,,,,,,,,,,,,,,,,,,,,,,,,,,,,168.9708764999814,168.97101059998386,168.97101969999494,169.07844189999742,169.07844189999742,169.07844189999742,169.07844189999742,169.07844189999742,169.07844189999742,169.07844189999742,169.07844189999742,169.57860300000175,171.46489919998567,l,C:\Users\lujun\Desktop\01_n_back\data/N_6_n_back_2_2025-01-02_15h32.07.781_verval_resp_a_recorded\recording_verval_resp_a_2025-01-02_15h35.20.158.wav,171.46540739998454,171.68073130000266,171.68073130000266,171.68073130000266,171.68073130000266,171.68073130000266,171.68073130000266,171.5610984999803,811.0,Audio OUT!,1,1,0,target,1/2,sv_t,0.810742300003767,None,,,,,,,,,,,,,,,,,,,,,,,,,,,,,,,,,,,,N,6,普通话,2025-01-02_15h32.07.781,n_back_2,2023.2.1,59.72192277931209,2025-01-02 15h32.28.701998 +0800,
168:210,1/2,2-,single,206,1/2,single,8,a,1,a,0,0,0,0,0,0,0,0,0,37,37,37,,,,,171.68073130000266,,,,,,,,,,,,,,,,,,,,,,,,,,,,,,,,,,,,,,,,,,,,,,,,,,171.5613589999848,171.56151159998262,171.56153690000065,171.68073130000266,171.68073130000266,171.68073130000266,171.68073130000266,171.68073130000266,171.68073130000266,171.68073130000266,171.68073130000266,172.18117349999375,174.05035829998087,a,C:\Users\lujun\Desktop\01_n_back\data/N_6_n_back_2_2025-01-02_15h32.07.781_verval_resp_a_recorded\recording_verval_resp_a_2025-01-02_15h35.22.743.wav,174.05091829999583,174.24981750000734,174.24981750000734,174.24981750000734,174.24981750000734,174.24981750000734,174.24981750000734,174.14174719998846,1166.0,Audio OUT!,1,0,1,non-target,1/2,sv_t,1.1662269000080414,None,,,,,,,,,,,,,,,,,,,,,,,,,,,,,,,,,,,,N,6,普通话,2025-01-02_15h32.07.781,n_back_2,2023.2.1,59.72192277931209,2025-01-02 15h32.28.701998 +0800,
168:210,1/2,2-,single,207,1/2,single,1,a,4,a,0,0,0,0,0,0,0,0,0,38,38,38,,,,,174.24981750000734,,,,,,,,,,,,,,,,,,,,,,,,,,,,,,,,,,,,,,,,,,,,,,,,,,174.14200779999373,174.14214379998157,174.14215349999722,174.24981750000734,174.24981750000734,174.24981750000734,174.24981750000734,174.24981750000734,174.24981750000734,174.24981750000734,174.24981750000734,174.7501462000073,176.63617869999143,a,C:\Users\lujun\Desktop\01_n_back\data/N_6_n_back_2_2025-01-02_15h32.07.781_verval_resp_a_recorded\recording_verval_resp_a_2025-01-02_15h35.25.328.wav,176.63677739998093,176.8368036999891,176.8368036999891,176.8368036999891,176.8368036999891,176.8368036999891,176.8368036999891,176.73176639998564,1337.0,Audio OUT!,1,0,1,non-target,1/2,sv_t,1.3370844000019133,None,,,,,,,,,,,,,,,,,,,,,,,,,,,,,,,,,,,,N,6,普通话,2025-01-02_15h32.07.781,n_back_2,2023.2.1,59.72192277931209,2025-01-02 15h32.28.701998 +0800,
168:210,1/2,2-,single,208,1/2,single,8,l,7,a,0,0,0,0,0,0,0,0,0,39,39,39,,,,,176.8368036999891,,,,,,,,,,,,,,,,,,,,,,,,,,,,,,,,,,,,,,,,,,,,,,,,,,176.7320214000065,176.73218439999619,176.7321968000033,176.8368036999891,176.8368036999891,176.8368036999891,176.8368036999891,176.8368036999891,176.8368036999891,176.8368036999891,176.8368036999891,177.3386271999916,179.2243094999867,l,C:\Users\lujun\Desktop\01_n_back\data/N_6_n_back_2_2025-01-02_15h32.07.781_verval_resp_a_recorded\recording_verval_resp_a_2025-01-02_15h35.27.917.wav,179.22482830000808,179.4220537999936,179.4220537999936,179.4220537999936,179.4220537999936,179.4220537999936,179.4220537999936,179.31558779999614,958.0,Audio OUT!,1,1,0,target,1/2,sv_t,0.9582012000028044,None,,,,,,,,,,,,,,,,,,,,,,,,,,,,,,,,,,,,N,6,普通话,2025-01-02_15h32.07.781,n_back_2,2023.2.1,59.72192277931209,2025-01-02 15h32.28.701998 +0800,
168:210,1/2,2-,single,209,1/2,single,5,a,4,l,0,0,0,0,0,0,0,0,0,40,40,40,,,,,179.4220537999936,,,,,,,,,,,,,,,,,,,,,,,,,,,,,,,,,,,,,,,,,,,,,,,,,,179.3158768999856,179.31603270000778,179.31604370000423,179.4220537999936,179.4220537999936,179.4220537999936,179.4220537999936,179.4220537999936,179.4220537999936,179.4220537999936,179.4220537999936,179.9247545999824,181.8106208999816,a,C:\Users\lujun\Desktop\01_n_back\data/N_6_n_back_2_2025-01-02_15h32.07.781_verval_resp_a_recorded\recording_verval_resp_a_2025-01-02_15h35.30.503.wav,181.8111998999957,182.0246322999883,182.0246322999883,182.0246322999883,182.0246322999883,182.0246322999883,182.0246322999883,181.90607779999846,1642.0,Audio OUT!,1,0,1,non-target,1/2,sv_t,1.6424630999972578,None,,,,,,,,,,,,,,,,,,,,,,,,,,,,,,,,,,,,N,6,普通话,2025-01-02_15h32.07.781,n_back_2,2023.2.1,59.72192277931209,2025-01-02 15h32.28.701998 +0800,
168:210,1/2,2-,single,210,1/2,single,8,l,8,a,0,0,0,0,0,0,0,0,0,41,41,41,,,,,182.0246322999883,,,,,,,,,,,,,,,,,,,,,,,,,,,,,,,,,,,,,,,,,,,,,,,,,,181.90633739999612,181.90647650000756,181.90648559998954,182.0246322999883,182.0246322999883,182.0246322999883,182.0246322999883,182.0246322999883,182.0246322999883,182.0246322999883,182.0246322999883,182.52468679999583,184.39401419999194,l,C:\Users\lujun\Desktop\01_n_back\data/N_6_n_back_2_2025-01-02_15h32.07.781_verval_resp_a_recorded\recording_verval_resp_a_2025-01-02_15h35.33.086.wav,184.39452199998777,184.5101267999853,184.5101267999853,184.5101267999853,184.5101267999853,184.5101267999853,184.5101267999853,184.48606359999394,730.0,Audio OUT!,1,1,0,target,1/2,sv_t,0.7303972000081558,None,,,,,,,,,,,,,,,,,,,,,,,,,,,,,,,,,,,,N,6,普通话,2025-01-02_15h32.07.781,n_back_2,2023.2.1,59.72192277931209,2025-01-02 15h32.28.701998 +0800,
168:210,1/2,2-,single,,,,,,,,0,0,0,0,0,0,0,0,,,,,,,,,,,,,,,,,,,,,,,,,,,,,,,,,,,,,,,,,,,,,,,,,,,,,,,,,,,,,,,,,,,,,,,,,,,,,,,,,,,,,,,,,,,,184.4861689999816,184.5101267999853,184.5101267999853,184.5101267999853,186.4790781000047,None,,,,,,,,,,,,,,,,,,,,,,,,,,,,,,N,6,普通话,2025-01-02_15h32.07.781,n_back_2,2023.2.1,59.72192277931209,2025-01-02 15h32.28.701998 +0800,
210:252,2/2,2-,single,211,2/2,single,7,control,5,control,0,0,0,0,0,1,1,1,0,0,0,0,,,,,191.15361009998014,,,,,,,,,,,,,,,,,,,,,,,,,,,,,,,186.4794852999912,186.49533819998032,186.49533819998032,186.49533819998032,186.49533819998032,189.8999111999874,l,3.403186800016556,None,189.90017139998963,190.0155667999934,190.0155667999934,190.0155667999934,190.0155667999934,191.15361009998014,191.15361009998014,191.15361009998014,191.15361009998014,191.0002511999919,191.0388127999904,191.03909989999374,191.039111399994,191.15361009998014,191.15361009998014,191.15361009998014,191.15361009998014,191.15361009998014,191.15361009998014,191.15361009998014,191.15361009998014,191.652712399984,193.52206799999112,a,C:\Users\lujun\Desktop\01_n_back\data/N_6_n_back_2_2025-01-02_15h32.07.781_verval_resp_a_recorded\recording_verval_resp_a_2025-01-02_15h35.42.214.wav,193.5227978999901,193.73591089999536,193.73591089999536,193.73591089999536,193.73591089999536,193.73591089999536,193.73591089999536,193.61777330000768,753.0,Audio OUT!,0,0,0,control,2/2,sv_t,0.7528458000160754,None,,,,,,,,,,,,,,,,,,,,,,,,,,,,,,,,,,,,N,6,普通话,2025-01-02_15h32.07.781,n_back_2,2023.2.1,59.72192277931209,2025-01-02 15h32.28.701998 +0800,
210:252,2/2,2-,single,212,2/2,single,3,control,1,control,0,0,0,0,0,1,1,1,0,1,1,1,,,,,193.73591089999536,,,,,,,,,,,,,,,,,,,,,,,,,,,,,,,,,,,,,,,,,,,,,,,,,,193.61803529999452,193.6181660000002,193.61817489998066,193.73591089999536,193.73591089999536,193.73591089999536,193.73591089999536,193.73591089999536,193.73591089999536,193.73591089999536,193.73591089999536,194.23684639998828,196.105979999993,None,C:\Users\lujun\Desktop\01_n_back\data/N_6_n_back_2_2025-01-02_15h32.07.781_verval_resp_a_recorded\recording_verval_resp_a_2025-01-02_15h35.44.798.wav,196.10638859999017,196.3064219999942,196.3064219999942,196.3064219999942,196.3064219999942,196.3064219999942,196.3064219999942,196.1993312999839,[],Audio OUT!,0,0,0,control,2/2,sv_t,,,,,,,,,,,,,,,,,,,,,,,,,,,,,,,,,,,,,,N,6,普通话,2025-01-02_15h32.07.781,n_back_2,2023.2.1,59.72192277931209,2025-01-02 15h32.28.701998 +0800,
210:252,2/2,2-,single,213,2/2,single,1,a,1,a,0,0,0,0,0,1,1,1,0,2,2,2,,,,,196.3064219999942,,,,,,,,,,,,,,,,,,,,,,,,,,,,,,,,,,,,,,,,,,,,,,,,,,196.199603999994,196.19975080000586,196.19976039999165,196.3064219999942,196.3064219999942,196.3064219999942,196.3064219999942,196.3064219999942,196.3064219999942,196.3064219999942,196.3064219999942,196.80838309999672,198.69398310000543,a,C:\Users\lujun\Desktop\01_n_back\data/N_6_n_back_2_2025-01-02_15h32.07.781_verval_resp_a_recorded\recording_verval_resp_a_2025-01-02_15h35.47.386.wav,198.69469790000585,198.9077374000044,198.9077374000044,198.9077374000044,198.9077374000044,198.9077374000044,198.9077374000044,198.7896148999862,557.0,Audio OUT!,1,0,1,non-target,2/2,sv_t,0.556826700019883,None,,,,,,,,,,,,,,,,,,,,,,,,,,,,,,,,,,,,N,6,普通话,2025-01-02_15h32.07.781,n_back_2,2023.2.1,59.72192277931209,2025-01-02 15h32.28.701998 +0800,
210:252,2/2,2-,single,214,2/2,single,3,l,3,a,0,0,0,0,0,1,1,1,0,3,3,3,,,,,198.9077374000044,,,,,,,,,,,,,,,,,,,,,,,,,,,,,,,,,,,,,,,,,,,,,,,,,,198.78987350000534,198.79000229999656,198.79001120000612,198.9077374000044,198.9077374000044,198.9077374000044,198.9077374000044,198.9077374000044,198.9077374000044,198.9077374000044,198.9077374000044,199.40822179999668,201.27787679998437,a,C:\Users\lujun\Desktop\01_n_back\data/N_6_n_back_2_2025-01-02_15h32.07.781_verval_resp_a_recorded\recording_verval_resp_a_2025-01-02_15h35.49.971.wav,201.27839349998976,201.4772318000032,201.4772318000032,201.4772318000032,201.4772318000032,201.4772318000032,201.4772318000032,201.3699115999916,906.0,Audio OUT!,0,0,0,target,2/2,sv_t,0.9055913000192959,None,,,,,,,,,,,,,,,,,,,,,,,,,,,,,,,,,,,,N,6,普通话,2025-01-02_15h32.07.781,n_back_2,2023.2.1,59.72192277931209,2025-01-02 15h32.28.701998 +0800,
210:252,2/2,2-,single,215,2/2,single,6,a,8,a,0,0,0,0,0,1,1,1,0,4,4,4,,,,,201.4772318000032,,,,,,,,,,,,,,,,,,,,,,,,,,,,,,,,,,,,,,,,,,,,,,,,,,201.37017330000526,201.37031269998988,201.370322200004,201.4772318000032,201.4772318000032,201.4772318000032,201.4772318000032,201.4772318000032,201.4772318000032,201.4772318000032,201.4772318000032,201.97723950000363,203.86316439998336,a,C:\Users\lujun\Desktop\01_n_back\data/N_6_n_back_2_2025-01-02_15h32.07.781_verval_resp_a_recorded\recording_verval_resp_a_2025-01-02_15h35.52.556.wav,203.8636675000016,204.06431919999886,204.06431919999886,204.06431919999886,204.06431919999886,204.06431919999886,204.06431919999886,203.95931519998703,1215.0,Audio OUT!,1,0,1,non-target,2/2,sv_t,1.21540119999554,None,,,,,,,,,,,,,,,,,,,,,,,,,,,,,,,,,,,,N,6,普通话,2025-01-02_15h32.07.781,n_back_2,2023.2.1,59.72192277931209,2025-01-02 15h32.28.701998 +0800,
210:252,2/2,2-,single,216,2/2,single,1,a,3,l,0,0,0,0,0,1,1,1,0,5,5,5,,,,,204.06431919999886,,,,,,,,,,,,,,,,,,,,,,,,,,,,,,,,,,,,,,,,,,,,,,,,,,203.95958299998892,203.9597294999985,203.95973859998048,204.06431919999886,204.06431919999886,204.06431919999886,204.06431919999886,204.06431919999886,204.06431919999886,204.06431919999886,204.06431919999886,204.565552199987,206.45143869999447,a,C:\Users\lujun\Desktop\01_n_back\data/N_6_n_back_2_2025-01-02_15h32.07.781_verval_resp_a_recorded\recording_verval_resp_a_2025-01-02_15h35.55.144.wav,206.45195200000308,206.6493855000008,206.6493855000008,206.6493855000008,206.6493855000008,206.6493855000008,206.6493855000008,206.54296809999505,1306.0,Audio OUT!,1,0,1,non-target,2/2,sv_t,1.3064454999985173,None,,,,,,,,,,,,,,,,,,,,,,,,,,,,,,,,,,,,N,6,普通话,2025-01-02_15h32.07.781,n_back_2,2023.2.1,59.72192277931209,2025-01-02 15h32.28.701998 +0800,
210:252,2/2,2-,single,217,2/2,single,6,l,8,l,0,0,0,0,0,1,1,1,0,6,6,6,,,,,206.6493855000008,,,,,,,,,,,,,,,,,,,,,,,,,,,,,,,,,,,,,,,,,,,,,,,,,,206.54322819999652,206.54336799998418,206.54337679999298,206.6493855000008,206.6493855000008,206.6493855000008,206.6493855000008,206.6493855000008,206.6493855000008,206.6493855000008,206.6493855000008,207.15145750000374,209.0374710999895,l,C:\Users\lujun\Desktop\01_n_back\data/N_6_n_back_2_2025-01-02_15h32.07.781_verval_resp_a_recorded\recording_verval_resp_a_2025-01-02_15h35.57.730.wav,209.03810410000733,209.25195370000438,209.25195370000438,209.25195370000438,209.25195370000438,209.25195370000438,209.25195370000438,209.13471290000598,638.0,Audio OUT!,1,1,0,target,2/2,sv_t,0.6383444000093732,None,,,,,,,,,,,,,,,,,,,,,,,,,,,,,,,,,,,,N,6,普通话,2025-01-02_15h32.07.781,n_back_2,2023.2.1,59.72192277931209,2025-01-02 15h32.28.701998 +0800,
210:252,2/2,2-,single,218,2/2,single,1,l,2,a,0,0,0,0,0,1,1,1,0,7,7,7,,,,,209.25195370000438,,,,,,,,,,,,,,,,,,,,,,,,,,,,,,,,,,,,,,,,,,,,,,,,,,209.13500270000077,209.13514989998657,209.13516109998454,209.25195370000438,209.25195370000438,209.25195370000438,209.25195370000438,209.25195370000438,209.25195370000438,209.25195370000438,209.25195370000438,209.75255989999278,211.6211754999822,l,C:\Users\lujun\Desktop\01_n_back\data/N_6_n_back_2_2025-01-02_15h32.07.781_verval_resp_a_recorded\recording_verval_resp_a_2025-01-02_15h36.00.313.wav,211.62175540000317,211.82062779998523,211.82062779998523,211.82062779998523,211.82062779998523,211.82062779998523,211.82062779998523,211.71356390000437,788.0,Audio OUT!,1,1,0,target,2/2,sv_t,0.7882140000001527,None,,,,,,,,,,,,,,,,,,,,,,,,,,,,,,,,,,,,N,6,普通话,2025-01-02_15h32.07.781,n_back_2,2023.2.1,59.72192277931209,2025-01-02 15h32.28.701998 +0800,
210:252,2/2,2-,single,219,2/2,single,7,a,7,a,0,0,0,0,0,1,1,1,0,8,8,8,,,,,211.82062779998523,,,,,,,,,,,,,,,,,,,,,,,,,,,,,,,,,,,,,,,,,,,,,,,,,,211.7138558999868,211.71402069999021,211.71403189998819,211.82062779998523,211.82062779998523,211.82062779998523,211.82062779998523,211.82062779998523,211.82062779998523,211.82062779998523,211.82062779998523,212.32123549998505,214.2070208999794,a,C:\Users\lujun\Desktop\01_n_back\data/N_6_n_back_2_2025-01-02_15h32.07.781_verval_resp_a_recorded\recording_verval_resp_a_2025-01-02_15h36.02.899.wav,214.2076562999864,214.4086416999926,214.4086416999926,214.4086416999926,214.4086416999926,214.4086416999926,214.4086416999926,214.30325719999382,794.0,Audio OUT!,1,0,1,non-target,2/2,sv_t,0.7942705000168644,None,,,,,,,,,,,,,,,,,,,,,,,,,,,,,,,,,,,,N,6,普通话,2025-01-02_15h32.07.781,n_back_2,2023.2.1,59.72192277931209,2025-01-02 15h32.28.701998 +0800,
210:252,2/2,2-,single,220,2/2,single,2,a,2,l,0,0,0,0,0,1,1,1,0,9,9,9,,,,,214.4086416999926,,,,,,,,,,,,,,,,,,,,,,,,,,,,,,,,,,,,,,,,,,,,,,,,,,214.30355650000274,214.30369619998964,214.30370519999997,214.4086416999926,214.4086416999926,214.4086416999926,214.4086416999926,214.4086416999926,214.4086416999926,214.4086416999926,214.4086416999926,214.9091947999841,216.79578819999006,a,C:\Users\lujun\Desktop\01_n_back\data/N_6_n_back_2_2025-01-02_15h32.07.781_verval_resp_a_recorded\recording_verval_resp_a_2025-01-02_15h36.05.488.wav,216.79636000000755,216.99396669998532,216.99396669998532,216.99396669998532,216.99396669998532,216.99396669998532,216.99396669998532,216.88772949998383,1096.0,Audio OUT!,1,0,1,non-target,2/2,sv_t,1.0957899000204634,None,,,,,,,,,,,,,,,,,,,,,,,,,,,,,,,,,,,,N,6,普通话,2025-01-02_15h32.07.781,n_back_2,2023.2.1,59.72192277931209,2025-01-02 15h32.28.701998 +0800,
210:252,2/2,2-,single,221,2/2,single,7,l,7,l,0,0,0,0,0,1,1,1,0,10,10,10,,,,,216.99396669998532,,,,,,,,,,,,,,,,,,,,,,,,,,,,,,,,,,,,,,,,,,,,,,,,,,216.88803559998632,216.8881885999872,216.88819779999903,216.99396669998532,216.99396669998532,216.99396669998532,216.99396669998532,216.99396669998532,216.99396669998532,216.99396669998532,216.99396669998532,217.49515889998293,219.3812259999977,l,C:\Users\lujun\Desktop\01_n_back\data/N_6_n_back_2_2025-01-02_15h32.07.781_verval_resp_a_recorded\recording_verval_resp_a_2025-01-02_15h36.08.074.wav,219.3817519999866,219.59500979998847,219.59500979998847,219.59500979998847,219.59500979998847,219.59500979998847,219.59500979998847,219.47702550000395,814.0,Audio OUT!,1,1,0,target,2/2,sv_t,0.814203699992504,None,,,,,,,,,,,,,,,,,,,,,,,,,,,,,,,,,,,,N,6,普通话,2025-01-02_15h32.07.781,n_back_2,2023.2.1,59.72192277931209,2025-01-02 15h32.28.701998 +0800,
210:252,2/2,2-,single,222,2/2,single,2,l,8,a,0,0,0,0,0,1,1,1,0,11,11,11,,,,,219.59500979998847,,,,,,,,,,,,,,,,,,,,,,,,,,,,,,,,,,,,,,,,,,,,,,,,,,219.4772851000016,219.47741849999875,219.4774276999815,219.59500979998847,219.59500979998847,219.59500979998847,219.59500979998847,219.59500979998847,219.59500979998847,219.59500979998847,219.59500979998847,220.09542589998455,221.96486579999328,l,C:\Users\lujun\Desktop\01_n_back\data/N_6_n_back_2_2025-01-02_15h32.07.781_verval_resp_a_recorded\recording_verval_resp_a_2025-01-02_15h36.10.657.wav,221.96537329998682,222.1642426000035,222.1642426000035,222.1642426000035,222.1642426000035,222.1642426000035,222.1642426000035,222.05677189998096,721.0,Audio OUT!,1,1,0,target,2/2,sv_t,0.7209014999971259,None,,,,,,,,,,,,,,,,,,,,,,,,,,,,,,,,,,,,N,6,普通话,2025-01-02_15h32.07.781,n_back_2,2023.2.1,59.72192277931209,2025-01-02 15h32.28.701998 +0800,
210:252,2/2,2-,single,223,2/2,single,5,a,7,l,0,0,0,0,0,1,1,1,0,12,12,12,,,,,222.1642426000035,,,,,,,,,,,,,,,,,,,,,,,,,,,,,,,,,,,,,,,,,,,,,,,,,,222.05703269998776,222.0571740999876,222.05718350000097,222.1642426000035,222.1642426000035,222.1642426000035,222.1642426000035,222.1642426000035,222.1642426000035,222.1642426000035,222.1642426000035,222.66464949998772,224.5507907999854,a,C:\Users\lujun\Desktop\01_n_back\data/N_6_n_back_2_2025-01-02_15h32.07.781_verval_resp_a_recorded\recording_verval_resp_a_2025-01-02_15h36.13.243.wav,224.5513444999815,224.75155809998978,224.75155809998978,224.75155809998978,224.75155809998978,224.75155809998978,224.75155809998978,224.6463109999895,1161.0,Audio OUT!,1,0,1,non-target,2/2,sv_t,1.1608992000110447,None,,,,,,,,,,,,,,,,,,,,,,,,,,,,,,,,,,,,N,6,普通话,2025-01-02_15h32.07.781,n_back_2,2023.2.1,59.72192277931209,2025-01-02 15h32.28.701998 +0800,
210:252,2/2,2-,single,224,2/2,single,7,a,2,a,0,0,0,0,0,1,1,1,0,13,13,13,,,,,224.75155809998978,,,,,,,,,,,,,,,,,,,,,,,,,,,,,,,,,,,,,,,,,,,,,,,,,,224.6465733999794,224.6467153999838,224.64672409999184,224.75155809998978,224.75155809998978,224.75155809998978,224.75155809998978,224.75155809998978,224.75155809998978,224.75155809998978,224.75155809998978,225.2529474000039,227.1390857999795,a,C:\Users\lujun\Desktop\01_n_back\data/N_6_n_back_2_2025-01-02_15h32.07.781_verval_resp_a_recorded\recording_verval_resp_a_2025-01-02_15h36.15.831.wav,227.13961009998457,227.33650069998112,227.33650069998112,227.33650069998112,227.33650069998112,227.33650069998112,227.33650069998112,227.2311178999953,998.0,Audio OUT!,1,0,1,non-target,2/2,sv_t,0.99751750001451,None,,,,,,,,,,,,,,,,,,,,,,,,,,,,,,,,,,,,N,6,普通话,2025-01-02_15h32.07.781,n_back_2,2023.2.1,59.72192277931209,2025-01-02 15h32.28.701998 +0800,
210:252,2/2,2-,single,225,2/2,single,8,a,7,l,0,0,0,0,0,1,1,1,0,14,14,14,,,,,227.33650069998112,,,,,,,,,,,,,,,,,,,,,,,,,,,,,,,,,,,,,,,,,,,,,,,,,,227.23137389999465,227.23150709999027,227.23151640000287,227.33650069998112,227.33650069998112,227.33650069998112,227.33650069998112,227.33650069998112,227.33650069998112,227.33650069998112,227.33650069998112,227.8391477999976,229.72521380000398,a,C:\Users\lujun\Desktop\01_n_back\data/N_6_n_back_2_2025-01-02_15h32.07.781_verval_resp_a_recorded\recording_verval_resp_a_2025-01-02_15h36.18.418.wav,229.7259739000001,229.93925070000114,229.93925070000114,229.93925070000114,229.93925070000114,229.93925070000114,229.93925070000114,229.82115189998876,799.0,Audio OUT!,1,0,1,non-target,2/2,sv_t,0.7985766000056174,None,,,,,,,,,,,,,,,,,,,,,,,,,,,,,,,,,,,,N,6,普通话,2025-01-02_15h32.07.781,n_back_2,2023.2.1,59.72192277931209,2025-01-02 15h32.28.701998 +0800,
210:252,2/2,2-,single,226,2/2,single,7,l,3,a,0,0,0,0,0,1,1,1,0,15,15,15,,,,,229.93925070000114,,,,,,,,,,,,,,,,,,,,,,,,,,,,,,,,,,,,,,,,,,,,,,,,,,229.8214095000003,229.82154879998416,229.821557999996,229.93925070000114,229.93925070000114,229.93925070000114,229.93925070000114,229.93925070000114,229.93925070000114,229.93925070000114,229.93925070000114,230.4390088999935,232.30877579998923,l,C:\Users\lujun\Desktop\01_n_back\data/N_6_n_back_2_2025-01-02_15h32.07.781_verval_resp_a_recorded\recording_verval_resp_a_2025-01-02_15h36.21.001.wav,232.3092842999904,232.50809129999834,232.50809129999834,232.50809129999834,232.50809129999834,232.50809129999834,232.50809129999834,232.40117979998467,885.0,Audio OUT!,1,1,0,target,2/2,sv_t,0.8851123999920674,None,,,,,,,,,,,,,,,,,,,,,,,,,,,,,,,,,,,,N,6,普通话,2025-01-02_15h32.07.781,n_back_2,2023.2.1,59.72192277931209,2025-01-02 15h32.28.701998 +0800,
210:252,2/2,2-,single,227,2/2,single,4,a,6,a,0,0,0,0,0,1,1,1,0,16,16,16,,,,,232.50809129999834,,,,,,,,,,,,,,,,,,,,,,,,,,,,,,,,,,,,,,,,,,,,,,,,,,232.40146809999715,232.40162200000486,232.40163259999827,232.50809129999834,232.50809129999834,232.50809129999834,232.50809129999834,232.50809129999834,232.50809129999834,232.50809129999834,232.50809129999834,233.00827890000073,234.89425819998723,a,C:\Users\lujun\Desktop\01_n_back\data/N_6_n_back_2_2025-01-02_15h32.07.781_verval_resp_a_recorded\recording_verval_resp_a_2025-01-02_15h36.23.587.wav,234.89476070000092,235.09507899999153,235.09507899999153,235.09507899999153,235.09507899999153,235.09507899999153,235.09507899999153,234.98949579999316,1739.0,Audio OUT!,1,0,1,non-target,2/2,sv_t,1.7392306000110693,None,,,,,,,,,,,,,,,,,,,,,,,,,,,,,,,,,,,,N,6,普通话,2025-01-02_15h32.07.781,n_back_2,2023.2.1,59.72192277931209,2025-01-02 15h32.28.701998 +0800,
210:252,2/2,2-,single,228,2/2,single,3,a,3,l,0,0,0,0,0,1,1,1,0,17,17,17,,,,,235.09507899999153,,,,,,,,,,,,,,,,,,,,,,,,,,,,,,,,,,,,,,,,,,,,,,,,,,234.98975409998093,234.98989729999448,234.9899063000048,235.09507899999153,235.09507899999153,235.09507899999153,235.09507899999153,235.09507899999153,235.09507899999153,235.09507899999153,235.09507899999153,235.59665580000728,237.48227659999975,a,C:\Users\lujun\Desktop\01_n_back\data/N_6_n_back_2_2025-01-02_15h32.07.781_verval_resp_a_recorded\recording_verval_resp_a_2025-01-02_15h36.26.174.wav,237.48278349998873,237.67975539999316,237.67975539999316,237.67975539999316,237.67975539999316,237.67975539999316,237.67975539999316,237.57378429998062,947.0,Audio OUT!,1,0,1,non-target,2/2,sv_t,0.9468208000180312,None,,,,,,,,,,,,,,,,,,,,,,,,,,,,,,,,,,,,N,6,普通话,2025-01-02_15h32.07.781,n_back_2,2023.2.1,59.72192277931209,2025-01-02 15h32.28.701998 +0800,
210:252,2/2,2-,single,229,2/2,single,4,l,4,a,0,0,0,0,0,1,1,1,0,18,18,18,,,,,237.67975539999316,,,,,,,,,,,,,,,,,,,,,,,,,,,,,,,,,,,,,,,,,,,,,,,,,,237.57404609999503,237.57417539999005,237.5741840999981,237.67975539999316,237.67975539999316,237.67975539999316,237.67975539999316,237.67975539999316,237.67975539999316,237.67975539999316,237.67975539999316,238.18009379997966,240.06588199999533,l,C:\Users\lujun\Desktop\01_n_back\data/N_6_n_back_2_2025-01-02_15h32.07.781_verval_resp_a_recorded\recording_verval_resp_a_2025-01-02_15h36.28.758.wav,240.06638720000046,240.26757820000057,240.26757820000057,240.26757820000057,240.26757820000057,240.26757820000057,240.26757820000057,240.16144589998294,708.0,Audio OUT!,1,1,0,target,2/2,sv_t,0.7083230999996886,None,,,,,,,,,,,,,,,,,,,,,,,,,,,,,,,,,,,,N,6,普通话,2025-01-02_15h32.07.781,n_back_2,2023.2.1,59.72192277931209,2025-01-02 15h32.28.701998 +0800,
210:252,2/2,2-,single,230,2/2,single,8,a,8,a,0,0,0,0,0,1,1,1,0,19,19,19,,,,,240.26757820000057,,,,,,,,,,,,,,,,,,,,,,,,,,,,,,,,,,,,,,,,,,,,,,,,,,240.16170229998534,240.16184359998442,240.16185239999322,240.26757820000057,240.26757820000057,240.26757820000057,240.26757820000057,240.26757820000057,240.26757820000057,240.26757820000057,240.26757820000057,240.76848349999636,242.65428970000357,a,C:\Users\lujun\Desktop\01_n_back\data/N_6_n_back_2_2025-01-02_15h32.07.781_verval_resp_a_recorded\recording_verval_resp_a_2025-01-02_15h36.31.347.wav,242.65499549999367,242.85227469998063,242.85227469998063,242.85227469998063,242.85227469998063,242.85227469998063,242.85227469998063,242.7461348999932,1281.0,Audio OUT!,1,0,1,non-target,2/2,sv_t,1.2814184000017121,None,,,,,,,,,,,,,,,,,,,,,,,,,,,,,,,,,,,,N,6,普通话,2025-01-02_15h32.07.781,n_back_2,2023.2.1,59.72192277931209,2025-01-02 15h32.28.701998 +0800,
210:252,2/2,2-,single,231,2/2,single,4,l,4,l,0,0,0,0,0,1,1,1,0,20,20,20,,,,,242.85227469998063,,,,,,,,,,,,,,,,,,,,,,,,,,,,,,,,,,,,,,,,,,,,,,,,,,242.74639339998248,242.74655179999536,242.74656110000797,242.85227469998063,242.85227469998063,242.85227469998063,242.85227469998063,242.85227469998063,242.85227469998063,242.85227469998063,242.85227469998063,243.35449169998174,245.24002679999103,l,C:\Users\lujun\Desktop\01_n_back\data/N_6_n_back_2_2025-01-02_15h32.07.781_verval_resp_a_recorded\recording_verval_resp_a_2025-01-02_15h36.33.932.wav,245.24076990000322,245.45412919999217,245.45412919999217,245.45412919999217,245.45412919999217,245.45412919999217,245.45412919999217,245.3362228999904,856.0,Audio OUT!,1,1,0,target,2/2,sv_t,0.8559623000037391,None,,,,,,,,,,,,,,,,,,,,,,,,,,,,,,,,,,,,N,6,普通话,2025-01-02_15h32.07.781,n_back_2,2023.2.1,59.72192277931209,2025-01-02 15h32.28.701998 +0800,
210:252,2/2,2-,single,232,2/2,single,8,l,6,a,0,0,0,0,0,1,1,1,0,21,21,21,,,,,245.45412919999217,,,,,,,,,,,,,,,,,,,,,,,,,,,,,,,,,,,,,,,,,,,,,,,,,,245.33648279999034,245.33662039999035,245.33662950000144,245.45412919999217,245.45412919999217,245.45412919999217,245.45412919999217,245.45412919999217,245.45412919999217,245.45412919999217,245.45412919999217,245.95456879999256,247.82358860000386,l,C:\Users\lujun\Desktop\01_n_back\data/N_6_n_back_2_2025-01-02_15h32.07.781_verval_resp_a_recorded\recording_verval_resp_a_2025-01-02_15h36.36.516.wav,247.8241049000062,248.02331930000219,248.02331930000219,248.02331930000219,248.02331930000219,248.02331930000219,248.02331930000219,247.91541210000287,757.0,Audio OUT!,1,1,0,target,2/2,sv_t,0.7566919999953825,None,,,,,,,,,,,,,,,,,,,,,,,,,,,,,,,,,,,,N,6,普通话,2025-01-02_15h32.07.781,n_back_2,2023.2.1,59.72192277931209,2025-01-02 15h32.28.701998 +0800,
210:252,2/2,2-,single,233,2/2,single,7,a,2,a,0,0,0,0,0,1,1,1,0,22,22,22,,,,,248.02331930000219,,,,,,,,,,,,,,,,,,,,,,,,,,,,,,,,,,,,,,,,,,,,,,,,,,247.9156709999952,247.915818199981,247.91582719999133,248.02331930000219,248.02331930000219,248.02331930000219,248.02331930000219,248.02331930000219,248.02331930000219,248.02331930000219,248.02331930000219,248.52374750000308,250.40948349999962,a,C:\Users\lujun\Desktop\01_n_back\data/N_6_n_back_2_2025-01-02_15h32.07.781_verval_resp_a_recorded\recording_verval_resp_a_2025-01-02_15h36.39.101.wav,250.41002320000553,250.6104611000046,250.6104611000046,250.6104611000046,250.6104611000046,250.6104611000046,250.6104611000046,250.50505999999586,978.0,Audio OUT!,1,0,1,non-target,2/2,sv_t,0.978334299987182,None,,,,,,,,,,,,,,,,,,,,,,,,,,,,,,,,,,,,N,6,普通话,2025-01-02_15h32.07.781,n_back_2,2023.2.1,59.72192277931209,2025-01-02 15h32.28.701998 +0800,
210:252,2/2,2-,single,234,2/2,single,2,a,5,a,0,0,0,0,0,1,1,1,0,23,23,23,,,,,250.6104611000046,,,,,,,,,,,,,,,,,,,,,,,,,,,,,,,,,,,,,,,,,,,,,,,,,,250.50532229998498,250.50549260000116,250.50550509997993,250.6104611000046,250.6104611000046,250.6104611000046,250.6104611000046,250.6104611000046,250.6104611000046,250.6104611000046,250.6104611000046,251.11245529999724,252.99839719999,a,C:\Users\lujun\Desktop\01_n_back\data/N_6_n_back_2_2025-01-02_15h32.07.781_verval_resp_a_recorded\recording_verval_resp_a_2025-01-02_15h36.41.690.wav,252.9989182999998,253.19525520000025,253.19525520000025,253.19525520000025,253.19525520000025,253.19525520000025,253.19525520000025,253.0895043000055,1446.0,Audio OUT!,1,0,1,non-target,2/2,sv_t,1.4461392000084743,None,,,,,,,,,,,,,,,,,,,,,,,,,,,,,,,,,,,,N,6,普通话,2025-01-02_15h32.07.781,n_back_2,2023.2.1,59.72192277931209,2025-01-02 15h32.28.701998 +0800,
210:252,2/2,2-,single,235,2/2,single,7,l,1,a,0,0,0,0,0,1,1,1,0,24,24,24,,,,,253.19525520000025,,,,,,,,,,,,,,,,,,,,,,,,,,,,,,,,,,,,,,,,,,,,,,,,,,253.08976529998472,253.08990459999768,253.08991340000648,253.19525520000025,253.19525520000025,253.19525520000025,253.19525520000025,253.19525520000025,253.19525520000025,253.19525520000025,253.19525520000025,253.69558379999944,255.58187460000045,l,C:\Users\lujun\Desktop\01_n_back\data/N_6_n_back_2_2025-01-02_15h32.07.781_verval_resp_a_recorded\recording_verval_resp_a_2025-01-02_15h36.44.274.wav,255.58238139998866,255.7830214999849,255.7830214999849,255.7830214999849,255.7830214999849,255.7830214999849,255.7830214999849,255.67731850000564,731.0,Audio OUT!,1,1,0,target,2/2,sv_t,0.7308116000203881,None,,,,,,,,,,,,,,,,,,,,,,,,,,,,,,,,,,,,N,6,普通话,2025-01-02_15h32.07.781,n_back_2,2023.2.1,59.72192277931209,2025-01-02 15h32.28.701998 +0800,
210:252,2/2,2-,single,236,2/2,single,2,l,5,l,0,0,0,0,0,1,1,1,0,25,25,25,,,,,255.7830214999849,,,,,,,,,,,,,,,,,,,,,,,,,,,,,,,,,,,,,,,,,,,,,,,,,,255.67757509998046,255.67771560000256,255.6777242999815,255.7830214999849,255.7830214999849,255.7830214999849,255.7830214999849,255.7830214999849,255.7830214999849,255.7830214999849,255.7830214999849,256.2841328000068,258.169587899989,l,C:\Users\lujun\Desktop\01_n_back\data/N_6_n_back_2_2025-01-02_15h32.07.781_verval_resp_a_recorded\recording_verval_resp_a_2025-01-02_15h36.46.862.wav,258.17008650000207,258.366892799997,258.366892799997,258.366892799997,258.366892799997,258.366892799997,258.366892799997,258.2612106000015,630.0,Audio OUT!,1,1,0,target,2/2,sv_t,0.6297227000177372,None,,,,,,,,,,,,,,,,,,,,,,,,,,,,,,,,,,,,N,6,普通话,2025-01-02_15h32.07.781,n_back_2,2023.2.1,59.72192277931209,2025-01-02 15h32.28.701998 +0800,
210:252,2/2,2-,single,237,2/2,single,1,a,7,a,0,0,0,0,0,1,1,1,0,26,26,26,,,,,258.366892799997,,,,,,,,,,,,,,,,,,,,,,,,,,,,,,,,,,,,,,,,,,,,,,,,,,258.26147149997996,258.26161309998133,258.2616221999924,258.366892799997,258.366892799997,258.366892799997,258.366892799997,258.366892799997,258.366892799997,258.366892799997,258.366892799997,258.8674628000008,260.7533070000063,a,C:\Users\lujun\Desktop\01_n_back\data/N_6_n_back_2_2025-01-02_15h32.07.781_verval_resp_a_recorded\recording_verval_resp_a_2025-01-02_15h36.49.446.wav,260.75386729999445,260.9537943000032,260.9537943000032,260.9537943000032,260.9537943000032,260.9537943000032,260.9537943000032,260.8487625999842,561.0,Audio OUT!,1,0,1,non-target,2/2,sv_t,0.5606322000094224,None,,,,,,,,,,,,,,,,,,,,,,,,,,,,,,,,,,,,N,6,普通话,2025-01-02_15h32.07.781,n_back_2,2023.2.1,59.72192277931209,2025-01-02 15h32.28.701998 +0800,
210:252,2/2,2-,single,238,2/2,single,5,a,5,l,0,0,0,0,0,1,1,1,0,27,27,27,,,,,260.9537943000032,,,,,,,,,,,,,,,,,,,,,,,,,,,,,,,,,,,,,,,,,,,,,,,,,,260.84902170000714,260.8491611999925,260.8491697999998,260.9537943000032,260.9537943000032,260.9537943000032,260.9537943000032,260.9537943000032,260.9537943000032,260.9537943000032,260.9537943000032,261.4555517999979,263.3417175000068,a,C:\Users\lujun\Desktop\01_n_back\data/N_6_n_back_2_2025-01-02_15h32.07.781_verval_resp_a_recorded\recording_verval_resp_a_2025-01-02_15h36.52.034.wav,263.3423034999869,263.5388151999796,263.5388151999796,263.5388151999796,263.5388151999796,263.5388151999796,263.5388151999796,263.43296439998085,1166.0,Audio OUT!,1,0,1,non-target,2/2,sv_t,1.1655950999993365,None,,,,,,,,,,,,,,,,,,,,,,,,,,,,,,,,,,,,N,6,普通话,2025-01-02_15h32.07.781,n_back_2,2023.2.1,59.72192277931209,2025-01-02 15h32.28.701998 +0800,
210:252,2/2,2-,single,239,2/2,single,1,l,4,a,0,0,0,0,0,1,1,1,0,28,28,28,,,,,263.5388151999796,,,,,,,,,,,,,,,,,,,,,,,,,,,,,,,,,,,,,,,,,,,,,,,,,,263.4332271000021,263.433366799989,263.4333761000016,263.5388151999796,263.5388151999796,263.5388151999796,263.5388151999796,263.5388151999796,263.5388151999796,263.5388151999796,263.5388151999796,264.03917099998216,265.9252378999954,l,C:\Users\lujun\Desktop\01_n_back\data/N_6_n_back_2_2025-01-02_15h32.07.781_verval_resp_a_recorded\recording_verval_resp_a_2025-01-02_15h36.54.618.wav,265.92579660000047,266.1261777000036,266.1261777000036,266.1261777000036,266.1261777000036,266.1261777000036,266.1261777000036,266.02086869999766,754.0,Audio OUT!,1,1,0,target,2/2,sv_t,0.7540607000119053,None,,,,,,,,,,,,,,,,,,,,,,,,,,,,,,,,,,,,N,6,普通话,2025-01-02_15h32.07.781,n_back_2,2023.2.1,59.72192277931209,2025-01-02 15h32.28.701998 +0800,
210:252,2/2,2-,single,240,2/2,single,5,l,5,l,0,0,0,0,0,1,1,1,0,29,29,29,,,,,266.1261777000036,,,,,,,,,,,,,,,,,,,,,,,,,,,,,,,,,,,,,,,,,,,,,,,,,,266.02112950000446,266.021267300006,266.021276399988,266.1261777000036,266.1261777000036,266.1261777000036,266.1261777000036,266.1261777000036,266.1261777000036,266.1261777000036,266.1261777000036,266.627553600003,268.51330739998957,l,C:\Users\lujun\Desktop\01_n_back\data/N_6_n_back_2_2025-01-02_15h32.07.781_verval_resp_a_recorded\recording_verval_resp_a_2025-01-02_15h36.57.206.wav,268.5138059000019,268.71143900000607,268.71143900000607,268.71143900000607,268.71143900000607,268.71143900000607,268.71143900000607,268.6051284999994,608.0,Audio OUT!,1,1,0,target,2/2,sv_t,0.6084213999856729,None,,,,,,,,,,,,,,,,,,,,,,,,,,,,,,,,,,,,N,6,普通话,2025-01-02_15h32.07.781,n_back_2,2023.2.1,59.72192277931209,2025-01-02 15h32.28.701998 +0800,
210:252,2/2,2-,single,241,2/2,single,7,a,3,a,0,0,0,0,0,1,1,1,0,30,30,30,,,,,268.71143900000607,,,,,,,,,,,,,,,,,,,,,,,,,,,,,,,,,,,,,,,,,,,,,,,,,,268.60539149999386,268.6055339000013,268.60554309998406,268.71143900000607,268.71143900000607,268.71143900000607,268.71143900000607,268.71143900000607,268.71143900000607,268.71143900000607,268.71143900000607,269.2132799999963,271.0993262999982,a,C:\Users\lujun\Desktop\01_n_back\data/N_6_n_back_2_2025-01-02_15h32.07.781_verval_resp_a_recorded\recording_verval_resp_a_2025-01-02_15h36.59.791.wav,271.09983200000715,271.2991425000073,271.2991425000073,271.2991425000073,271.2991425000073,271.2991425000073,271.2991425000073,271.19496409999556,650.0,Audio OUT!,1,0,1,non-target,2/2,sv_t,0.6500006999995094,None,,,,,,,,,,,,,,,,,,,,,,,,,,,,,,,,,,,,N,6,普通话,2025-01-02_15h32.07.781,n_back_2,2023.2.1,59.72192277931209,2025-01-02 15h32.28.701998 +0800,
210:252,2/2,2-,single,242,2/2,single,1,a,1,a,0,0,0,0,0,1,1,1,0,31,31,31,,,,,271.2991425000073,,,,,,,,,,,,,,,,,,,,,,,,,,,,,,,,,,,,,,,,,,,,,,,,,,271.1952834999829,271.19543940000585,271.1954487999901,271.2991425000073,271.2991425000073,271.2991425000073,271.2991425000073,271.2991425000073,271.2991425000073,271.2991425000073,271.2991425000073,271.79919180000434,273.6851623999828,a,C:\Users\lujun\Desktop\01_n_back\data/N_6_n_back_2_2025-01-02_15h32.07.781_verval_resp_a_recorded\recording_verval_resp_a_2025-01-02_15h37.02.378.wav,273.68566210000427,273.8823612999986,273.8823612999986,273.8823612999986,273.8823612999986,273.8823612999986,273.8823612999986,273.77651339999284,752.0,Audio OUT!,1,0,1,non-target,2/2,sv_t,0.7520136999955866,None,,,,,,,,,,,,,,,,,,,,,,,,,,,,,,,,,,,,N,6,普通话,2025-01-02_15h32.07.781,n_back_2,2023.2.1,59.72192277931209,2025-01-02 15h32.28.701998 +0800,
210:252,2/2,2-,single,243,2/2,single,7,l,8,a,0,0,0,0,0,1,1,1,0,32,32,32,,,,,273.8823612999986,,,,,,,,,,,,,,,,,,,,,,,,,,,,,,,,,,,,,,,,,,,,,,,,,,273.776772799989,273.7769139999873,273.7769227999961,273.8823612999986,273.8823612999986,273.8823612999986,273.8823612999986,273.8823612999986,273.8823612999986,273.8823612999986,273.8823612999986,274.38278859999264,276.2686277999892,l,C:\Users\lujun\Desktop\01_n_back\data/N_6_n_back_2_2025-01-02_15h32.07.781_verval_resp_a_recorded\recording_verval_resp_a_2025-01-02_15h37.04.961.wav,276.2691308000067,276.469474499987,276.469474499987,276.469474499987,276.469474499987,276.469474499987,276.469474499987,276.3642079999845,702.0,Audio OUT!,1,1,0,target,2/2,sv_t,0.7021239000023343,None,,,,,,,,,,,,,,,,,,,,,,,,,,,,,,,,,,,,N,6,普通话,2025-01-02_15h32.07.781,n_back_2,2023.2.1,59.72192277931209,2025-01-02 15h32.28.701998 +0800,
210:252,2/2,2-,single,244,2/2,single,1,l,2,a,0,0,0,0,0,1,1,1,0,33,33,33,,,,,276.469474499987,,,,,,,,,,,,,,,,,,,,,,,,,,,,,,,,,,,,,,,,,,,,,,,,,,276.36446710000746,276.3646055999852,276.3646141999925,276.469474499987,276.469474499987,276.469474499987,276.469474499987,276.469474499987,276.469474499987,276.469474499987,276.469474499987,276.97106700000586,278.8572326999856,l,C:\Users\lujun\Desktop\01_n_back\data/N_6_n_back_2_2025-01-02_15h32.07.781_verval_resp_a_recorded\recording_verval_resp_a_2025-01-02_15h37.07.550.wav,278.8578777000075,279.0550023999822,279.0550023999822,279.0550023999822,279.0550023999822,279.0550023999822,279.0550023999822,278.9488650999847,1098.0,Audio OUT!,1,1,0,target,2/2,sv_t,1.097835499997018,None,,,,,,,,,,,,,,,,,,,,,,,,,,,,,,,,,,,,N,6,普通话,2025-01-02_15h32.07.781,n_back_2,2023.2.1,59.72192277931209,2025-01-02 15h32.28.701998 +0800,
210:252,2/2,2-,single,245,2/2,single,4,a,8,l,0,0,0,0,0,1,1,1,0,34,34,34,,,,,279.0550023999822,,,,,,,,,,,,,,,,,,,,,,,,,,,,,,,,,,,,,,,,,,,,,,,,,,278.9491221999924,278.9492663999845,278.94927549999557,279.0550023999822,279.0550023999822,279.0550023999822,279.0550023999822,279.0550023999822,279.0550023999822,279.0550023999822,279.0550023999822,279.5569778000063,281.4431043000077,a,C:\Users\lujun\Desktop\01_n_back\data/N_6_n_back_2_2025-01-02_15h32.07.781_verval_resp_a_recorded\recording_verval_resp_a_2025-01-02_15h37.10.136.wav,281.4436390000046,281.6567475000047,281.6567475000047,281.6567475000047,281.6567475000047,281.6567475000047,281.6567475000047,281.53853510000044,690.0,Audio OUT!,1,0,1,non-target,2/2,sv_t,0.6896416999807116,None,,,,,,,,,,,,,,,,,,,,,,,,,,,,,,,,,,,,N,6,普通话,2025-01-02_15h32.07.781,n_back_2,2023.2.1,59.72192277931209,2025-01-02 15h32.28.701998 +0800,
210:252,2/2,2-,single,246,2/2,single,8,a,2,l,0,0,0,0,0,1,1,1,0,35,35,35,,,,,281.6567475000047,,,,,,,,,,,,,,,,,,,,,,,,,,,,,,,,,,,,,,,,,,,,,,,,,,281.5387952000019,281.53893509999034,281.53894460000447,281.6567475000047,281.6567475000047,281.6567475000047,281.6567475000047,281.6567475000047,281.6567475000047,281.6567475000047,281.6567475000047,282.1572623999964,284.02647019998403,a,C:\Users\lujun\Desktop\01_n_back\data/N_6_n_back_2_2025-01-02_15h32.07.781_verval_resp_a_recorded\recording_verval_resp_a_2025-01-02_15h37.12.718.wav,284.02697619999526,284.226067599986,284.226067599986,284.226067599986,284.226067599986,284.226067599986,284.226067599986,284.1179594999994,1267.0,Audio OUT!,1,0,1,non-target,2/2,sv_t,1.267160999996122,None,,,,,,,,,,,,,,,,,,,,,,,,,,,,,,,,,,,,N,6,普通话,2025-01-02_15h32.07.781,n_back_2,2023.2.1,59.72192277931209,2025-01-02 15h32.28.701998 +0800,
210:252,2/2,2-,single,247,2/2,single,4,l,8,l,0,0,0,0,0,1,1,1,0,36,36,36,,,,,284.226067599986,,,,,,,,,,,,,,,,,,,,,,,,,,,,,,,,,,,,,,,,,,,,,,,,,,284.11827869998524,284.11842359998263,284.1184327999945,284.226067599986,284.226067599986,284.226067599986,284.226067599986,284.226067599986,284.226067599986,284.226067599986,284.226067599986,284.7264232999878,286.61243069998454,l,C:\Users\lujun\Desktop\01_n_back\data/N_6_n_back_2_2025-01-02_15h32.07.781_verval_resp_a_recorded\recording_verval_resp_a_2025-01-02_15h37.15.305.wav,286.61294089999865,286.81334429999697,286.81334429999697,286.81334429999697,286.81334429999697,286.81334429999697,286.81334429999697,286.70789039999363,822.0,Audio OUT!,1,1,0,target,2/2,sv_t,0.8222699999751057,None,,,,,,,,,,,,,,,,,,,,,,,,,,,,,,,,,,,,N,6,普通话,2025-01-02_15h32.07.781,n_back_2,2023.2.1,59.72192277931209,2025-01-02 15h32.28.701998 +0800,
210:252,2/2,2-,single,248,2/2,single,1,a,7,a,0,0,0,0,0,1,1,1,0,37,37,37,,,,,286.81334429999697,,,,,,,,,,,,,,,,,,,,,,,,,,,,,,,,,,,,,,,,,,,,,,,,,,286.70815940000466,286.7083028999914,286.7083120000025,286.81334429999697,286.81334429999697,286.81334429999697,286.81334429999697,286.81334429999697,286.81334429999697,286.81334429999697,286.81334429999697,287.3147340999858,289.20096109999577,a,C:\Users\lujun\Desktop\01_n_back\data/N_6_n_back_2_2025-01-02_15h32.07.781_verval_resp_a_recorded\recording_verval_resp_a_2025-01-02_15h37.17.893.wav,289.2014959999942,289.39820679998957,289.39820679998957,289.39820679998957,289.39820679998957,289.39820679998957,289.39820679998957,289.2926507999946,924.0,Audio OUT!,1,0,1,non-target,2/2,sv_t,0.923600299982354,None,,,,,,,,,,,,,,,,,,,,,,,,,,,,,,,,,,,,N,6,普通话,2025-01-02_15h32.07.781,n_back_2,2023.2.1,59.72192277931209,2025-01-02 15h32.28.701998 +0800,
210:252,2/2,2-,single,249,2/2,single,5,a,4,a,0,0,0,0,0,1,1,1,0,38,38,38,,,,,289.39820679998957,,,,,,,,,,,,,,,,,,,,,,,,,,,,,,,,,,,,,,,,,,,,,,,,,,289.2929079000023,289.29304779999075,289.2930564999988,289.39820679998957,289.39820679998957,289.39820679998957,289.39820679998957,289.39820679998957,289.39820679998957,289.39820679998957,289.39820679998957,289.90078999998514,291.7867305999971,a,C:\Users\lujun\Desktop\01_n_back\data/N_6_n_back_2_2025-01-02_15h32.07.781_verval_resp_a_recorded\recording_verval_resp_a_2025-01-02_15h37.20.479.wav,291.78726529999403,292.00038230000064,292.00038230000064,292.00038230000064,292.00038230000064,292.00038230000064,292.00038230000064,291.8824742999859,1283.0,Audio OUT!,1,0,1,non-target,2/2,sv_t,1.2833891999907792,None,,,,,,,,,,,,,,,,,,,,,,,,,,,,,,,,,,,,N,6,普通话,2025-01-02_15h32.07.781,n_back_2,2023.2.1,59.72192277931209,2025-01-02 15h32.28.701998 +0800,
210:252,2/2,2-,single,250,2/2,single,8,a,7,l,0,0,0,0,0,1,1,1,0,39,39,39,,,,,292.00038230000064,,,,,,,,,,,,,,,,,,,,,,,,,,,,,,,,,,,,,,,,,,,,,,,,,,291.8827373999811,291.88288689998444,291.88289589999476,292.00038230000064,292.00038230000064,292.00038230000064,292.00038230000064,292.00038230000064,292.00038230000064,292.00038230000064,292.00038230000064,292.50095899999724,294.37013480000314,l,C:\Users\lujun\Desktop\01_n_back\data/N_6_n_back_2_2025-01-02_15h32.07.781_verval_resp_a_recorded\recording_verval_resp_a_2025-01-02_15h37.23.062.wav,294.37064419998205,294.56965829999535,294.56965829999535,294.56965829999535,294.56965829999535,294.56965829999535,294.56965829999535,294.46231380000245,1882.0,Audio OUT!,0,0,0,non-target,2/2,sv_t,1.8819809000124224,None,,,,,,,,,,,,,,,,,,,,,,,,,,,,,,,,,,,,N,6,普通话,2025-01-02_15h32.07.781,n_back_2,2023.2.1,59.72192277931209,2025-01-02 15h32.28.701998 +0800,
210:252,2/2,2-,single,251,2/2,single,3,a,4,l,0,0,0,0,0,1,1,1,0,40,40,40,,,,,294.56965829999535,,,,,,,,,,,,,,,,,,,,,,,,,,,,,,,,,,,,,,,,,,,,,,,,,,294.46257539998624,294.4627189000021,294.46272779998253,294.56965829999535,294.56965829999535,294.56965829999535,294.56965829999535,294.56965829999535,294.56965829999535,294.56965829999535,294.56965829999535,295.0701419999823,296.95601920000627,a,C:\Users\lujun\Desktop\01_n_back\data/N_6_n_back_2_2025-01-02_15h32.07.781_verval_resp_a_recorded\recording_verval_resp_a_2025-01-02_15h37.25.648.wav,296.95659149999847,297.1566108999832,297.1566108999832,297.1566108999832,297.1566108999832,297.1566108999832,297.1566108999832,297.0512639999797,1042.0,Audio OUT!,1,0,1,non-target,2/2,sv_t,1.0424539000086952,None,,,,,,,,,,,,,,,,,,,,,,,,,,,,,,,,,,,,N,6,普通话,2025-01-02_15h32.07.781,n_back_2,2023.2.1,59.72192277931209,2025-01-02 15h32.28.701998 +0800,
210:252,2/2,2-,single,252,2/2,single,6,a,2,a,0,0,0,0,0,1,1,1,0,41,41,41,,,,,297.1566108999832,,,,,,,,,,,,,,,,,,,,,,,,,,,,,,,,,,,,,,,,,,,,,,,,,,297.0515250999888,297.0516908999998,297.0517040999839,297.1566108999832,297.1566108999832,297.1566108999832,297.1566108999832,297.1566108999832,297.1566108999832,297.1566108999832,297.1566108999832,297.65841639999417,299.544118299993,a,C:\Users\lujun\Desktop\01_n_back\data/N_6_n_back_2_2025-01-02_15h32.07.781_verval_resp_a_recorded\recording_verval_resp_a_2025-01-02_15h37.28.236.wav,299.54469149999204,299.64131129998714,299.64131129998714,299.64131129998714,299.64131129998714,299.64131129998714,299.64131129998714,299.6358069999842,974.0,Audio OUT!,1,0,1,non-target,2/2,sv_t,0.974155099975178,None,,,,,,,,,,,,,,,,,,,,,,,,,,,,,,,,,,,,N,6,普通话,2025-01-02_15h32.07.781,n_back_2,2023.2.1,59.72192277931209,2025-01-02 15h32.28.701998 +0800,
210:252,2/2,2-,single,,,,,,,,0,0,0,0,0,1,1,1,,,,,,,,,,,,,,,,,,,,,,,,,,,,,,,,,,,,,,,,,,,,,,,,,,,,,,,,,,,,,,,,,,,,,,,,,,,,,,,,,,,,,,,,,,,,299.6359119999979,299.64131129998714,299.64131129998714,299.64131129998714,301.62806289998116,None,,,,,,,,,,,,,,,,,,,,,,,,,,,,,,N,6,普通话,2025-01-02_15h32.07.781,n_back_2,2023.2.1,59.72192277931209,2025-01-02 15h32.28.701998 +0800,
,,,,,,,,,,,0,0,0,0,,,,,,,,,0,0,0,0,301.7267099999881,,,,,,,,,,,,,,,,,,,,,,,,,,,,,,,,,,,,,,,,,,,,,,,,,,,,,,,,,,,,,,,,,,,,,,,,,,,,,,,,,,,,,,,,,301.6287256999931,301.7267099999881,0.01815839999471791,301.7267099999881,309.03536310000345,1,"1. How much mental and perceptual activity was required (e.g., thinking, deciding, calculating, remembering, looking, searching, etc.)? ",slider,None,None,None,None,,,,,,,,,,,,,,,,,,N,6,普通话,2025-01-02_15h32.07.781,n_back_2,2023.2.1,59.72192277931209,2025-01-02 15h32.28.701998 +0800,
,,,,,,,,,,,0,0,0,0,,,,,,,,,0,0,0,0,,,,,,,,,,,,,,,,,,,,,,,,,,,,,,,,,,,,,,,,,,,,,,,,,,,,,,,,,,,,,,,,,,,,,,,,,,,,,,,,,,,,,,,,,,,,,,,2,"2. How much physical activity was required (e.g. pushing, pulling, turning, controlling, activating. etc.)? ",slider,None,None,None,None,,,,,,,,,,,,,,,,,,N,6,普通话,2025-01-02_15h32.07.781,n_back_2,2023.2.1,59.72192277931209,2025-01-02 15h32.28.701998 +0800,
,,,,,,,,,,,0,0,0,0,,,,,,,,,0,0,0,0,,,,,,,,,,,,,,,,,,,,,,,,,,,,,,,,,,,,,,,,,,,,,,,,,,,,,,,,,,,,,,,,,,,,,,,,,,,,,,,,,,,,,,,,,,,,,,,3,3. How much time pressure did you feel due to the rate or pace at which the tasks or task elements occurred?,slider,None,None,None,None,,,,,,,,,,,,,,,,,,N,6,普通话,2025-01-02_15h32.07.781,n_back_2,2023.2.1,59.72192277931209,2025-01-02 15h32.28.701998 +0800,
,,,,,,,,,,,0,0,0,0,,,,,,,,,0,0,0,0,,,,,,,,,,,,,,,,,,,,,,,,,,,,,,,,,,,,,,,,,,,,,,,,,,,,,,,,,,,,,,,,,,,,,,,,,,,,,,,,,,,,,,,,,,,,,,,4,4. How successful do you think you were in accomplishing the goals of the task set by the experimenter (or yourself)? ,slider,None,None,None,None,,,,,,,,,,,,,,,,,,N,6,普通话,2025-01-02_15h32.07.781,n_back_2,2023.2.1,59.72192277931209,2025-01-02 15h32.28.701998 +0800,
,,,,,,,,,,,0,0,0,0,,,,,,,,,0,0,0,0,,,,,,,,,,,,,,,,,,,,,,,,,,,,,,,,,,,,,,,,,,,,,,,,,,,,,,,,,,,,,,,,,,,,,,,,,,,,,,,,,,,,,,,,,,,,,,,5,5. How hard did you have to work (mentally and physically) to accomplish your level of performance?,slider,None,None,None,None,,,,,,,,,,,,,,,,,,N,6,普通话,2025-01-02_15h32.07.781,n_back_2,2023.2.1,59.72192277931209,2025-01-02 15h32.28.701998 +0800,
,,,,,,,,,,,0,0,0,0,,,,,,,,,0,0,0,0,,,,,,,,,,,,,,,,,,,,,,,,,,,,,,,,,,,,,,,,,,,,,,,,,,,,,,,,,,,,,,,,,,,,,,,,,,,,,,,,,,,,,,,,,,,,,,,6,"6. How insecure, discouraged, irritated, stressed and annoyed did you feel during the task?",slider,None,None,None,None,,,,,,,,,,,,,,,,,,N,6,普通话,2025-01-02_15h32.07.781,n_back_2,2023.2.1,59.72192277931209,2025-01-02 15h32.28.701998 +0800,
,,,,,,,,,,,0,0,0,0,,,,,,,,,0,0,0,0,,,,,,,,,,,,,,,,,,,,,,,,,,,,,,,,,,,,,,,,,,,,,,,,,,,,,,,,,,,,,,,,,,,,,,,,,,,,,,,,,,,,,,,,,,,,,,,,,,,,,,[0.010185185185185186],[0.019444444444444445],[1],[0],[0],[7.388503000023775],['scale_sub_box'],,,,,,,,,,,N,6,普通话,2025-01-02_15h32.07.781,n_back_2,2023.2.1,59.72192277931209,2025-01-02 15h32.28.701998 +0800,
,,,,,,,,,,,0,0,0,0,,,,,,,,,1,0,1,0,309.1178138999967,,,,,,,,,,,,,,,,,,,,,,,,,,,,,,,,,,,,,,,,,,,,,,,,,,,,,,,,,,,,,,,,,,,,,,,,,,,,,,,,,,,,,,,,,309.036454599991,309.1178138999967,0.0009492999815847725,309.1178138999967,310.786970199988,1,"1. How much mental and perceptual activity was required (e.g., thinking, deciding, calculating, remembering, looking, searching, etc.)? ",slider,None,None,0.4634947606910225,7.4870715999859385,,,,,,,,,,,,,,,,,,N,6,普通话,2025-01-02_15h32.07.781,n_back_2,2023.2.1,59.72192277931209,2025-01-02 15h32.28.701998 +0800,
,,,,,,,,,,,0,0,0,0,,,,,,,,,1,0,1,0,,,,,,,,,,,,,,,,,,,,,,,,,,,,,,,,,,,,,,,,,,,,,,,,,,,,,,,,,,,,,,,,,,,,,,,,,,,,,,,,,,,,,,,,,,,,,,,2,"2. How much physical activity was required (e.g. pushing, pulling, turning, controlling, activating. etc.)? ",slider,None,None,None,None,,,,,,,,,,,,,,,,,,N,6,普通话,2025-01-02_15h32.07.781,n_back_2,2023.2.1,59.72192277931209,2025-01-02 15h32.28.701998 +0800,
,,,,,,,,,,,0,0,0,0,,,,,,,,,1,0,1,0,,,,,,,,,,,,,,,,,,,,,,,,,,,,,,,,,,,,,,,,,,,,,,,,,,,,,,,,,,,,,,,,,,,,,,,,,,,,,,,,,,,,,,,,,,,,,,,3,3. How much time pressure did you feel due to the rate or pace at which the tasks or task elements occurred?,slider,None,None,None,None,,,,,,,,,,,,,,,,,,N,6,普通话,2025-01-02_15h32.07.781,n_back_2,2023.2.1,59.72192277931209,2025-01-02 15h32.28.701998 +0800,
,,,,,,,,,,,0,0,0,0,,,,,,,,,1,0,1,0,,,,,,,,,,,,,,,,,,,,,,,,,,,,,,,,,,,,,,,,,,,,,,,,,,,,,,,,,,,,,,,,,,,,,,,,,,,,,,,,,,,,,,,,,,,,,,,4,4. How successful do you think you were in accomplishing the goals of the task set by the experimenter (or yourself)? ,slider,None,None,None,None,,,,,,,,,,,,,,,,,,N,6,普通话,2025-01-02_15h32.07.781,n_back_2,2023.2.1,59.72192277931209,2025-01-02 15h32.28.701998 +0800,
,,,,,,,,,,,0,0,0,0,,,,,,,,,1,0,1,0,,,,,,,,,,,,,,,,,,,,,,,,,,,,,,,,,,,,,,,,,,,,,,,,,,,,,,,,,,,,,,,,,,,,,,,,,,,,,,,,,,,,,,,,,,,,,,,5,5. How hard did you have to work (mentally and physically) to accomplish your level of performance?,slider,None,None,None,None,,,,,,,,,,,,,,,,,,N,6,普通话,2025-01-02_15h32.07.781,n_back_2,2023.2.1,59.72192277931209,2025-01-02 15h32.28.701998 +0800,
,,,,,,,,,,,0,0,0,0,,,,,,,,,1,0,1,0,,,,,,,,,,,,,,,,,,,,,,,,,,,,,,,,,,,,,,,,,,,,,,,,,,,,,,,,,,,,,,,,,,,,,,,,,,,,,,,,,,,,,,,,,,,,,,,6,"6. How insecure, discouraged, irritated, stressed and annoyed did you feel during the task?",slider,None,None,None,None,,,,,,,,,,,,,,,,,,N,6,普通话,2025-01-02_15h32.07.781,n_back_2,2023.2.1,59.72192277931209,2025-01-02 15h32.28.701998 +0800,
,,,,,,,,,,,0,0,0,0,,,,,,,,,1,0,1,0,,,,,,,,,,,,,,,,,,,,,,,,,,,,,,,,,,,,,,,,,,,,,,,,,,,,,,,,,,,,,,,,,,,,,,,,,,,,,,,,,,,,,,,,,,,,,,,,,,,,,,[0.03796296296296296],[0.019444444444444445],[1],[0],[0],[1.7492745000054128],['scale_sub_box'],,,,,,,,,,,N,6,普通话,2025-01-02_15h32.07.781,n_back_2,2023.2.1,59.72192277931209,2025-01-02 15h32.28.701998 +0800,
,,,,,,,,,,,0,0,0,0,,,,,,,,,2,0,2,0,310.8692653999897,,,,,,,,,,,,,,,,,,,,,,,,,,,,,,,,,,,,,,,,,,,,,,,,,,,,,,,,,,,,,,,,,,,,,,,,,,,,,,,,,,,,,,,,,310.7877641999803,310.8692653999897,0.0009699999936856329,310.8692653999897,342.8183641000069,1,"1. How much mental and perceptual activity was required (e.g., thinking, deciding, calculating, remembering, looking, searching, etc.)? ",slider,None,None,0.861753044463325,12.158433299977332,,,,,,,,,,,,,,,,,,N,6,普通话,2025-01-02_15h32.07.781,n_back_2,2023.2.1,59.72192277931209,2025-01-02 15h32.28.701998 +0800,
,,,,,,,,,,,0,0,0,0,,,,,,,,,2,0,2,0,,,,,,,,,,,,,,,,,,,,,,,,,,,,,,,,,,,,,,,,,,,,,,,,,,,,,,,,,,,,,,,,,,,,,,,,,,,,,,,,,,,,,,,,,,,,,,,2,"2. How much physical activity was required (e.g. pushing, pulling, turning, controlling, activating. etc.)? ",slider,None,None,0.3803030303030305,18.59423539999989,,,,,,,,,,,,,,,,,,N,6,普通话,2025-01-02_15h32.07.781,n_back_2,2023.2.1,59.72192277931209,2025-01-02 15h32.28.701998 +0800,
,,,,,,,,,,,0,0,0,0,,,,,,,,,2,0,2,0,,,,,,,,,,,,,,,,,,,,,,,,,,,,,,,,,,,,,,,,,,,,,,,,,,,,,,,,,,,,,,,,,,,,,,,,,,,,,,,,,,,,,,,,,,,,,,,3,3. How much time pressure did you feel due to the rate or pace at which the tasks or task elements occurred?,slider,None,None,0.5696969696969698,39.21103750000475,,,,,,,,,,,,,,,,,,N,6,普通话,2025-01-02_15h32.07.781,n_back_2,2023.2.1,59.72192277931209,2025-01-02 15h32.28.701998 +0800,
,,,,,,,,,,,0,0,0,0,,,,,,,,,2,0,2,0,,,,,,,,,,,,,,,,,,,,,,,,,,,,,,,,,,,,,,,,,,,,,,,,,,,,,,,,,,,,,,,,,,,,,,,,,,,,,,,,,,,,,,,,,,,,,,,4,4. How successful do you think you were in accomplishing the goals of the task set by the experimenter (or yourself)? ,slider,None,None,None,None,,,,,,,,,,,,,,,,,,N,6,普通话,2025-01-02_15h32.07.781,n_back_2,2023.2.1,59.72192277931209,2025-01-02 15h32.28.701998 +0800,
,,,,,,,,,,,0,0,0,0,,,,,,,,,2,0,2,0,,,,,,,,,,,,,,,,,,,,,,,,,,,,,,,,,,,,,,,,,,,,,,,,,,,,,,,,,,,,,,,,,,,,,,,,,,,,,,,,,,,,,,,,,,,,,,,5,5. How hard did you have to work (mentally and physically) to accomplish your level of performance?,slider,None,None,None,None,,,,,,,,,,,,,,,,,,N,6,普通话,2025-01-02_15h32.07.781,n_back_2,2023.2.1,59.72192277931209,2025-01-02 15h32.28.701998 +0800,
,,,,,,,,,,,0,0,0,0,,,,,,,,,2,0,2,0,,,,,,,,,,,,,,,,,,,,,,,,,,,,,,,,,,,,,,,,,,,,,,,,,,,,,,,,,,,,,,,,,,,,,,,,,,,,,,,,,,,,,,,,,,,,,,,6,"6. How insecure, discouraged, irritated, stressed and annoyed did you feel during the task?",slider,None,None,None,None,,,,,,,,,,,,,,,,,,N,6,普通话,2025-01-02_15h32.07.781,n_back_2,2023.2.1,59.72192277931209,2025-01-02 15h32.28.701998 +0800,
,,,,,,,,,,,0,0,0,0,,,,,,,,,2,0,2,0,,,,,,,,,,,,,,,,,,,,,,,,,,,,,,,,,,,,,,,,,,,,,,,,,,,,,,,,,,,,,,,,,,,,,,,,,,,,,,,,,,,,,,,,,,,,,,,,,,,,,,"[0.2601851851851852, 0.42685185185185187, -0.016666666666666666, -0.07685185185185185, 0.12129629629629629, 0.06666666666666667]","[0.018518518518518517, 0.010185185185185186, -0.1925925925925926, -0.18796296296296297, -0.2518518518518518, -0.000925925925925926]","[1, 1, 1, 1, 1, 1]","[0, 0, 0, 0, 0, 0]","[0, 0, 0, 0, 0, 0]","[1.165524700016249, 2.9171444000094198, 8.840068799996516, 9.423778299998958, 30.027541100018425, 32.02933300001314]",['scale_sub_box'],,,,,,,,,,,N,6,普通话,2025-01-02_15h32.07.781,n_back_2,2023.2.1,59.72192277931209,2025-01-02 15h32.28.701998 +0800,
,,,,,,,,,,,0,0,0,0,,,,,,,,,3,0,3,0,342.90105779998703,,,,,,,,,,,,,,,,,,,,,,,,,,,,,,,,,,,,,,,,,,,,,,,,,,,,,,,,,,,,,,,,,,,,,,,,,,,,,,,,,,,,,,,,,342.8191236999992,342.90105779998703,0.0008528000034857541,342.90105779998703,366.5921432999894,1,"1. How much mental and perceptual activity was required (e.g., thinking, deciding, calculating, remembering, looking, searching, etc.)? ",slider,None,None,0.861753044463325,12.158433299977332,,,,,,,,362.00341939998907,,,,,,,,,,N,6,普通话,2025-01-02_15h32.07.781,n_back_2,2023.2.1,59.72192277931209,2025-01-02 15h32.28.701998 +0800,
,,,,,,,,,,,0,0,0,0,,,,,,,,,3,0,3,0,,,,,,,,,,,,,,,,,,,,,,,,,,,,,,,,,,,,,,,,,,,,,,,,,,,,,,,,,,,,,,,,,,,,,,,,,,,,,,,,,,,,,,,,,,,,,,,2,"2. How much physical activity was required (e.g. pushing, pulling, turning, controlling, activating. etc.)? ",slider,None,None,0.3803030303030305,18.59423539999989,,,,,,,,,,,,,,,,,,N,6,普通话,2025-01-02_15h32.07.781,n_back_2,2023.2.1,59.72192277931209,2025-01-02 15h32.28.701998 +0800,
,,,,,,,,,,,0,0,0,0,,,,,,,,,3,0,3,0,,,,,,,,,,,,,,,,,,,,,,,,,,,,,,,,,,,,,,,,,,,,,,,,,,,,,,,,,,,,,,,,,,,,,,,,,,,,,,,,,,,,,,,,,,,,,,,3,3. How much time pressure did you feel due to the rate or pace at which the tasks or task elements occurred?,slider,None,None,0.5174808836023791,41.21184269999503,,,,,,,,,,,,,,,,,,N,6,普通话,2025-01-02_15h32.07.781,n_back_2,2023.2.1,59.72192277931209,2025-01-02 15h32.28.701998 +0800,
,,,,,,,,,,,0,0,0,0,,,,,,,,,3,0,3,0,,,,,,,,,,,,,,,,,,,,,,,,,,,,,,,,,,,,,,,,,,,,,,,,,,,,,,,,,,,,,,,,,,,,,,,,,,,,,,,,,,,,,,,,,,,,,,,4,4. How successful do you think you were in accomplishing the goals of the task set by the experimenter (or yourself)? ,slider,None,None,0.6192580005664119,27.74546000000555,,,,,,,,,,,,,,,,,,N,6,普通话,2025-01-02_15h32.07.781,n_back_2,2023.2.1,59.72192277931209,2025-01-02 15h32.28.701998 +0800,
,,,,,,,,,,,0,0,0,0,,,,,,,,,3,0,3,0,,,,,,,,,,,,,,,,,,,,,,,,,,,,,,,,,,,,,,,,,,,,,,,,,,,,,,,,,,,,,,,,,,,,,,,,,,,,,,,,,,,,,,,,,,,,,,,5,5. How hard did you have to work (mentally and physically) to accomplish your level of performance?,slider,None,None,0.4502194845652791,12.57012869999744,,,,,,,,,,,,,,,,,,N,6,普通话,2025-01-02_15h32.07.781,n_back_2,2023.2.1,59.72192277931209,2025-01-02 15h32.28.701998 +0800,
,,,,,,,,,,,0,0,0,0,,,,,,,,,3,0,3,0,,,,,,,,,,,,,,,,,,,,,,,,,,,,,,,,,,,,,,,,,,,,,,,,,,,,,,,,,,,,,,,,,,,,,,,,,,,,,,,,,,,,,,,,,,,,,,,6,"6. How insecure, discouraged, irritated, stressed and annoyed did you feel during the task?",slider,None,None,0.27233078448031733,15.497806300001685,,,,,,,,,,,,,,,,,,N,6,普通话,2025-01-02_15h32.07.781,n_back_2,2023.2.1,59.72192277931209,2025-01-02 15h32.28.701998 +0800,
,,,,,,,,,,,0,0,0,0,,,,,,,,,3,0,3,0,,,,,,,,,,,,,,,,,,,,,,,,,,,,,,,,,,,,,,,,,,,,,,,,,,,,,,,,,,,,,,,,,,,,,,,,,,,,,,,,,,,,,,,,,,,,,,,,,,,,,,"[0.17314814814814813, -0.003703703703703704, -0.2462962962962963, -0.1648148148148148, -0.18981481481481483, 0.6240740740740741]","[-0.30648148148148147, -0.25462962962962965, -0.31666666666666665, -0.3074074074074074, -0.325, 0.43425925925925923]","[1, 1, 1, 1, 1, 1]","[0, 0, 0, 0, 0, 0]","[0, 0, 0, 0, 0, 0]","[5.670684199983953, 11.259450299985474, 18.850330499990378, 19.51777989999391, 22.353790900000604, 23.7717875999806]",['scale_sub_box'],,,,,,,,,,,N,6,普通话,2025-01-02_15h32.07.781,n_back_2,2023.2.1,59.72192277931209,2025-01-02 15h32.28.701998 +0800,
,,,,,,,,,,,0,0,0,0,,,,,,,,,,,,,,,,,,,,,,,,,,,,,,,,,,,,,,,,,,,,,,,,,,,,,,,,,,,,,,,,,,,,,,,,,,,,,,,,,,,,,,,,,,,,,,,,,,,,,,,,,,,,,,,,,,,,,,,,,,,,,,,,,,,N,6,普通话,2025-01-02_15h32.07.781,n_back_2,2023.2.1,59.72192277931209,2025-01-02 15h32.28.701998 +0800,
168:210,1/2,2-,single,169,1/2,single,4,control,7,control,1,0,1,0,0,0,0,0,0,0,0,0,,,,,385.3278892999806,,,,,,,,,,,366.59312429997954,366.62473670000327,366.62473670000327,0.0021007000177633017,366.62473670000327,366.62473670000327,366.62473670000327,366.62473670000327,366.62473670000327,366.62473670000327,366.62473670000327,366.62473670000327,366.62473670000327,382.57515620000777,0.05092592592592592,-0.25092592592592594,1,0,0,sa_t,382.58114550000755,382.6073761000007,382.6073761000007,382.6073761000007,382.6073761000007,384.0594621000055,l,1.4463981000008062,None,384.0598551000003,384.17557649998344,384.17557649998344,384.17557649998344,384.17557649998344,385.3278892999806,385.3278892999806,385.3278892999806,385.3278892999806,385.1602633000002,385.19965349999256,385.19994669998414,385.19995779998135,385.3278892999806,385.3278892999806,385.3278892999806,385.3278892999806,385.3278892999806,385.3278892999806,385.3278892999806,385.3278892999806,385.82714889998897,387.6968188000028,None,C:\Users\lujun\Desktop\01_n_back\data/N_6_n_back_2_2025-01-02_15h32.07.781_verval_resp_a_recorded\recording_verval_resp_a_2025-01-02_15h38.56.401.wav,387.7108608999988,387.933466699993,387.933466699993,387.933466699993,387.933466699993,387.933466699993,387.933466699993,387.81284919998143,[],control,0,0,0,Visaul OUT!,1/2,sa_t,,,,,,,,,,,,,,,,,,,,,,,,,,,,,385.31176518000717,0.10488110000733286,,,,,,,,N,6,普通话,2025-01-02_15h32.07.781,n_back_2,2023.2.1,59.72192277931209,2025-01-02 15h32.28.701998 +0800,
168:210,1/2,2-,single,170,1/2,single,5,control,1,control,1,0,1,0,0,0,0,0,0,1,1,1,,,,,387.933466699993,,,,,,,,,,,,,,,,,,,,,,,,,,,,,,,,,,,,,,,,,,,,,,,,,,387.8131592999853,387.8133438999939,387.8133579999849,387.933466699993,387.933466699993,387.933466699993,387.933466699993,387.933466699993,387.933466699993,387.933466699993,387.933466699993,388.4490411999868,390.3016510999878,None,C:\Users\lujun\Desktop\01_n_back\data/N_6_n_back_2_2025-01-02_15h32.07.781_verval_resp_a_recorded\recording_verval_resp_a_2025-01-02_15h38.59.001.wav,390.3110780999996,390.5331966999802,390.5331966999802,390.5331966999802,390.5331966999802,390.5331966999802,390.5331966999802,390.4120292000007,[],control,0,0,0,Visaul OUT!,1/2,sa_t,,,,,,,,,,,,,,,,,,,,,,,,,,,,,387.9157452599931,0.09291590002248995,,,,,,,,N,6,普通话,2025-01-02_15h32.07.781,n_back_2,2023.2.1,59.72192277931209,2025-01-02 15h32.28.701998 +0800,
168:210,1/2,2-,single,171,1/2,single,4,l,7,l,1,0,1,0,0,0,0,0,0,2,2,2,,,,,390.5331966999802,,,,,,,,,,,,,,,,,,,,,,,,,,,,,,,,,,,,,,,,,,,,,,,,,,390.41242459998466,390.4126749999996,390.4126913000073,390.5331966999802,390.5331966999802,390.5331966999802,390.5331966999802,390.5331966999802,390.5331966999802,390.5331966999802,390.5331966999802,391.03248059999896,392.9015548999887,None,C:\Users\lujun\Desktop\01_n_back\data/N_6_n_back_2_2025-01-02_15h32.07.781_verval_resp_a_recorded\recording_verval_resp_a_2025-01-02_15h39.01.600.wav,392.9104945999861,393.1270063999982,393.1270063999982,393.1270063999982,393.1270063999982,393.1270063999982,393.1270063999982,393.0063261000032,[],target,0,0,0,Visaul OUT!,1/2,sa_t,,,,,,,,,,,,,,,,,,,,,,,,,,,,,390.52039835998147,0.09307599999010563,,,,,,,,N,6,普通话,2025-01-02_15h32.07.781,n_back_2,2023.2.1,59.72192277931209,2025-01-02 15h32.28.701998 +0800,
168:210,1/2,2-,single,172,1/2,single,7,a,8,a,1,0,1,0,0,0,0,0,0,3,3,3,,,,,393.1270063999982,,,,,,,,,,,,,,,,,,,,,,,,,,,,,,,,,,,,,,,,,,,,,,,,,,393.0066121999989,393.0068619999802,393.00687449998804,393.1270063999982,393.1270063999982,393.1270063999982,393.1270063999982,393.1270063999982,393.1270063999982,393.1270063999982,393.1270063999982,393.63488450000295,395.4897834000003,None,C:\Users\lujun\Desktop\01_n_back\data/N_6_n_back_2_2025-01-02_15h32.07.781_verval_resp_a_recorded\recording_verval_resp_a_2025-01-02_15h39.04.184.wav,395.4938916999963,395.72463229999994,395.72463229999994,395.72463229999994,395.72463229999994,395.72463229999994,395.72463229999994,395.6024586999847,[],non-target,0,0,0,Visaul OUT!,1/2,sa_t,,,,,,,,,,,,,,,,,,,,,,,,,,,,,393.10358393999627,0.0923758999851998,,,,,,,,N,6,普通话,2025-01-02_15h32.07.781,n_back_2,2023.2.1,59.72192277931209,2025-01-02 15h32.28.701998 +0800,
168:210,1/2,2-,single,173,1/2,single,8,a,4,a,1,0,1,0,0,0,0,0,0,4,4,4,,,,,395.72463229999994,,,,,,,,,,,,,,,,,,,,,,,,,,,,,,,,,,,,,,,,,,,,,,,,,,395.60278590000235,395.60298429999966,395.6029971999815,395.72463229999994,395.72463229999994,395.72463229999994,395.72463229999994,395.72463229999994,395.72463229999994,395.72463229999994,395.72463229999994,396.2400619999971,398.0903180000023,None,C:\Users\lujun\Desktop\01_n_back\data/N_6_n_back_2_2025-01-02_15h32.07.781_verval_resp_a_recorded\recording_verval_resp_a_2025-01-02_15h39.06.791.wav,398.10130730000674,398.323638700007,398.323638700007,398.323638700007,398.323638700007,398.323638700007,398.323638700007,398.20073290000437,[],non-target,0,0,0,Visaul OUT!,1/2,sa_t,,,,,,,,,,,,,,,,,,,,,,,,,,,,,395.70868466000246,0.09352950000902638,,,,,,,,N,6,普通话,2025-01-02_15h32.07.781,n_back_2,2023.2.1,59.72192277931209,2025-01-02 15h32.28.701998 +0800,
168:210,1/2,2-,single,174,1/2,single,7,l,8,l,1,0,1,0,0,0,0,0,0,5,5,5,,,,,398.323638700007,,,,,,,,,,,,,,,,,,,,,,,,,,,,,,,,,,,,,,,,,,,,,,,,,,398.20112389998394,398.20135359998676,398.2013634000032,398.323638700007,398.323638700007,398.323638700007,398.323638700007,398.323638700007,398.323638700007,398.323638700007,398.323638700007,398.8235599999898,400.6927955999854,None,C:\Users\lujun\Desktop\01_n_back\data/N_6_n_back_2_2025-01-02_15h32.07.781_verval_resp_a_recorded\recording_verval_resp_a_2025-01-02_15h39.09.388.wav,400.697966799984,400.92925580000156,400.92925580000156,400.92925580000156,400.92925580000156,400.92925580000156,400.92925580000156,400.7987613999867,[],target,0,0,0,Visaul OUT!,1/2,sa_t,,,,,,,,,,,,,,,,,,,,,,,,,,,,,398.3090222599887,0.09163020001142286,,,,,,,,N,6,普通话,2025-01-02_15h32.07.781,n_back_2,2023.2.1,59.72192277931209,2025-01-02 15h32.28.701998 +0800,
168:210,1/2,2-,single,175,1/2,single,2,a,4,l,1,0,1,0,0,0,0,0,0,6,6,6,,,,,400.92925580000156,,,,,,,,,,,,,,,,,,,,,,,,,,,,,,,,,,,,,,,,,,,,,,,,,,400.79920909999055,400.7994445999793,400.7994621999969,400.92925580000156,400.92925580000156,400.92925580000156,400.92925580000156,400.92925580000156,400.92925580000156,400.92925580000156,400.92925580000156,401.42838539998047,403.2954087999824,None,C:\Users\lujun\Desktop\01_n_back\data/N_6_n_back_2_2025-01-02_15h32.07.781_verval_resp_a_recorded\recording_verval_resp_a_2025-01-02_15h39.11.998.wav,403.30723529998795,403.53170829999726,403.53170829999726,403.53170829999726,403.53170829999726,403.53170829999726,403.53170829999726,403.4102775999927,[],target,0,0,0,Visaul OUT!,1/2,sa_t,,,,,,,,,,,,,,,,,,,,,,,,,,,,,400.91170795998477,0.10292639999534003,,,,,,,,N,6,普通话,2025-01-02_15h32.07.781,n_back_2,2023.2.1,59.72192277931209,2025-01-02 15h32.28.701998 +0800,
168:210,1/2,2-,single,176,1/2,single,7,l,7,a,1,0,1,0,0,0,0,0,0,7,7,7,,,,,403.53170829999726,,,,,,,,,,,,,,,,,,,,,,,,,,,,,,,,,,,,,,,,,,,,,,,,,,403.4106627999863,403.41087979997974,403.4108949000074,403.53170829999726,403.53170829999726,403.53170829999726,403.53170829999726,403.53170829999726,403.53170829999726,403.53170829999726,403.53170829999726,404.03105009999126,405.8984596999944,None,C:\Users\lujun\Desktop\01_n_back\data/N_6_n_back_2_2025-01-02_15h32.07.781_verval_resp_a_recorded\recording_verval_resp_a_2025-01-02_15h39.14.600.wav,405.90912510000635,406.13243440000224,406.13243440000224,406.13243440000224,406.13243440000224,406.13243440000224,406.13243440000224,406.0117968999839,[],non-target,0,0,0,Visaul OUT!,1/2,sa_t,,,,,,,,,,,,,,,,,,,,,,,,,,,,,403.51408835998444,0.09375010000076145,,,,,,,,N,6,普通话,2025-01-02_15h32.07.781,n_back_2,2023.2.1,59.72192277931209,2025-01-02 15h32.28.701998 +0800,
